Browser,true_x_res,true_y_res,x_adjustment,y_adjustment,Params_TravelTime,Params_yOffset,Params_Reach,Params_ScreenWidth,Params_ScreenHeight,Params_Hz,Params_HzScale,Params_conf_linewidth,params_consent,WelcomeEscape.keys,WelcomeEscape.rt,InstMouse.x,InstMouse.y,InstMouse.leftButton,InstMouse.midButton,InstMouse.rightButton,key_resp_2.keys,key_resp_2.rt,EndDemoExplantion.keys,EndDemoExplantion.rt,Demo_speedCond,Demo_delta,Demo_xposTarget,Demo_yposTarget,Demo_Delay,Demo_AvSpeed,Demo_Success,Demo_motion,Demo_Click,Demo_RTms,DemoMouse.x,DemoMouse.y,DemoMouse.leftButton,DemoMouse.midButton,DemoMouse.rightButton,DemoMouse.time,DemoMouse.clicked_name,Demo_finalX,Demo_finalY,DemoFeedBackMoveOn.keys,DemoFeedBackMoveOn.rt,BlockLoop.thisRepN,BlockLoop.thisTrialN,BlockLoop.thisN,BlockLoop.thisIndex,BlockLoop.ran,BlockLoop.order,DemoLoop.thisRepN,DemoLoop.thisTrialN,DemoLoop.thisN,DemoLoop.thisIndex,DemoLoop.ran,DemoLoop.order,participant,Age,Gender,date,expName,psychopyVersion,OS,frameRate,InstSkip.keys,InstSkip.rt,MoveOn.keys,MoveOn.rt,Decision_Delta,Decision_xposTarget,Decision_yposTarget,Decision_SpeedCond,Decision_AvSpeed,Decision_delay,Decision_targetSide,Decision_placement,Decision_initplace,AvatarMouse.x,AvatarMouse.y,AvatarMouse.leftButton,AvatarMouse.midButton,AvatarMouse.rightButton,AvatarMouse.time,PlacingKeyboard.keys,PlacingKeyboard.rt,Decision_Driving,Decision_Click,Decision_RTms,DrivingMouse.x,DrivingMouse.y,DrivingMouse.leftButton,DrivingMouse.midButton,DrivingMouse.rightButton,DrivingMouse.time,DrivingMouse.clicked_name,Decision_finalX,Decision_finalY,Decision_success,TrialMoveOn.keys,TrialMoveOn.rt,DecisionTrialLoop.thisRepN,DecisionTrialLoop.thisTrialN,DecisionTrialLoop.thisN,DecisionTrialLoop.thisIndex,DecisionTrialLoop.ran,DecisionTrialLoop.order,key_resp.keys,key_resp.rt,Conf_mouse.x,Conf_mouse.y,Conf_mouse.leftButton,Conf_mouse.midButton,Conf_mouse.rightButton,Conf_mouse.time,Conf_resp.keys,Conf_resp.rt,Confidence_Delta,Confidence_resp,ConfidenceLoop.thisRepN,ConfidenceLoop.thisTrialN,ConfidenceLoop.thisN,ConfidenceLoop.thisIndex,ConfidenceLoop.ran,ConfidenceLoop.order,exp_duration
Chrome,1366,625,1,1,120,100,45,1200,600,60,1,300,Agreed,space,16.74399996,345,-102.5,0,0,0,space,32.02799988,space,19.08800006,const,500,400,0,109,3.5,0,"[""stopped"",""stopped"",""stopped"",""stopped"",""stopped"",""stopped"",""stopped"",""stopped"",""stopped"",""stopped"",""stopped"",""stopped"",""stopped"",""stopped"",""stopped"",""stopped"",""stopped"",""stopped"",""stopped"",""stopped"",""stopped"",""stopped"",""stopped"",""stopped"",""stopped"",""stopped"",""stopped"",""stopped"",""stopped"",""stopped"",""stopped"",""stopped"",""stopped"",""stopped"",""stopped"",""stopped"",""stopped"",""right"",""right"",""right"",""right"",""right"",""right"",""right"",""right"",""right"",""right"",""right"",""right"",""right"",""right"",""right"",""right"",""right"",""right"",""right"",""right"",""right"",""right"",""right"",""right"",""right"",""right"",""right"",""right"",""right"",""right"",""right"",""right"",""right"",""right"",""right"",""right"",""right"",""right"",""right"",""right"",""right"",""right"",""right"",""right"",""right"",""right"",""right"",""right"",""right"",""right"",""right"",""right"",""right"",""right"",""right"",""right"",""right"",""right"",""right"",""right"",""right"",""right"",""right"",""right"",""right"",""right"",""right"",""right"",""right"",""right"",""right"",""right"",""right"",""right"",""right"",""right"",""right"",""right"",""right"",""right"",""right"",""right"",""right"",""right""]","[0,0,0,0,0,0,0,0,0,0,0,0,0,0,0,0,0,0,0,0,0,0,0,0,0,0,0,0,0,0,0,0,0,0,0,0,0,1,1,1,1,1,1,1,1,1,1,1,1,1,1,1,1,1,1,1,1,1,1,1,1,1,1,1,1,1,1,1,1,1,1,1,1,1,1,1,1,1,1,1,1,1,1,1,1,1,1,1,1,1,1,1,1,1,1,1,1,1,1,1,1,1,1,1,1,1,1,1,1,1,1,1,1,1,1,1,1,1,1,1,1]",616,[43],[-194.5],[1],[0],[0],[2.6080000400543213],"[""RightClickDemo""]",0,100,space,1.684999943,1,0,1,0,1,0,80,0,80,0,1,79,fangyanjun715,23,2,2020-07-15_19h23.10.185,AvatarManual,3.2.2,Win32,60,,,,,,,,,,,,,,,,,,,,,,,,,,,,,,,,,,,,,,,,,,,,,,,,,,,,,,,,,,,,,
,,,,,,,,,,,,,,,,,,,,,,,,,,500,400,0,140,3.5,0,"[""stopped"",""stopped"",""stopped"",""stopped"",""stopped"",""stopped"",""stopped"",""stopped"",""stopped"",""stopped"",""stopped"",""stopped"",""stopped"",""stopped"",""stopped"",""stopped"",""down"",""down"",""down"",""down"",""down"",""down"",""down"",""down"",""down"",""down"",""down"",""down"",""down"",""stopped"",""stopped"",""stopped"",""stopped"",""stopped"",""stopped"",""stopped"",""down"",""down"",""down"",""down"",""down"",""down"",""down"",""down"",""down"",""down"",""down"",""down"",""down"",""down"",""down"",""down"",""down"",""down"",""down"",""stopped"",""stopped"",""stopped"",""stopped"",""stopped"",""stopped"",""stopped"",""stopped"",""stopped"",""stopped"",""stopped"",""right"",""right"",""right"",""right"",""right"",""right"",""right"",""right"",""right"",""right"",""right"",""right"",""right"",""right"",""right"",""right"",""right"",""right"",""right"",""right"",""right"",""right"",""right"",""right"",""right"",""right"",""right"",""right"",""right"",""right"",""right"",""right"",""right"",""right"",""right"",""right"",""right"",""right"",""right"",""right"",""right"",""right"",""right"",""right"",""right"",""right"",""right"",""right"",""right"",""right"",""right"",""right"",""right"",""right"",""right""]","[0,0,0,0,0,0,0,0,0,0,0,0,0,0,0,0,1,1,1,1,1,1,1,1,1,1,1,1,1,0,0,0,0,0,0,0,1,1,1,1,1,1,1,1,1,1,1,1,1,1,1,1,1,1,1,0,0,0,0,0,0,0,0,0,0,0,1,1,1,1,1,1,1,1,1,1,1,1,1,1,1,1,1,1,1,1,1,1,1,1,1,1,1,1,1,1,1,1,1,1,1,1,1,1,1,1,1,1,1,1,1,1,1,1,1,1,1,1,1,1,1]",266,"[45,4,-6,-6,25]","[-190.5,-245.5,-246.5,-246.5,-194.5]","[1,1,1,1,1]","[0,0,0,0,0]","[0,0,0,0,0]","[1.1510000228881836,3.890000104904175,7.700999975204468,8.068000078201294,8.568000078201294]","[""RightClickDemo"",""DownClickDemo"",""DownClickDemo"",""DownClickDemo"",""RightClickDemo""]",0,100,space,1.601000071,1,0,1,0,1,0,80,0,80,0,1,79,fangyanjun715,23,2,2020-07-15_19h23.10.185,AvatarManual,3.2.2,Win32,60,,,,,,,,,,,,,,,,,,,,,,,,,,,,,,,,,,,,,,,,,,,,,,,,,,,,,,,,,,,,,
,,,,,,,,,,,,,,,,,,,,,,,,,,500,-400,0,95,3.5,0,"[""stopped"",""stopped"",""stopped"",""stopped"",""stopped"",""stopped"",""stopped"",""stopped"",""stopped"",""stopped"",""stopped"",""stopped"",""stopped"",""stopped"",""stopped"",""stopped"",""stopped"",""stopped"",""stopped"",""stopped"",""stopped"",""stopped"",""stopped"",""left"",""left"",""left"",""left"",""left"",""left"",""left"",""left"",""left"",""left"",""left"",""left"",""left"",""left"",""left"",""left"",""left"",""left"",""left"",""left"",""left"",""left"",""left"",""left"",""left"",""left"",""left"",""left"",""left"",""left"",""left"",""left"",""left"",""left"",""left"",""left"",""left"",""left"",""left"",""left"",""left"",""left"",""left"",""left"",""left"",""left"",""left"",""left"",""left"",""left"",""left"",""left"",""left"",""left"",""left"",""left"",""left"",""left"",""left"",""left"",""left"",""left"",""left"",""left"",""left"",""left"",""left"",""left"",""left"",""left"",""left"",""left"",""left"",""left"",""left"",""left"",""left"",""left"",""left"",""left"",""left"",""left"",""left"",""left"",""left"",""left"",""left"",""left"",""left"",""left"",""left"",""left"",""left"",""left"",""left"",""left"",""left"",""left""]","[0,0,0,0,0,0,0,0,0,0,0,0,0,0,0,0,0,0,0,0,0,0,0,1,1,1,1,1,1,1,1,1,1,1,1,1,1,1,1,1,1,1,1,1,1,1,1,1,1,1,1,1,1,1,1,1,1,1,1,1,1,1,1,1,1,1,1,1,1,1,1,1,1,1,1,1,1,1,1,1,1,1,1,1,1,1,1,1,1,1,1,1,1,1,1,1,1,1,1,1,1,1,1,1,1,1,1,1,1,1,1,1,1,1,1,1,1,1,1,1,1]",483,[-48],[-202.5],[1],[0],[0],[2.0510001182556152],"[""LeftClickDemo""]",0,100,space,0.95600009,1,0,1,0,1,0,80,0,80,0,1,79,fangyanjun715,23,2,2020-07-15_19h23.10.185,AvatarManual,3.2.2,Win32,60,,,,,,,,,,,,,,,,,,,,,,,,,,,,,,,,,,,,,,,,,,,,,,,,,,,,,,,,,,,,,
,,,,,,,,,,,,,,,,,,,,,,,,,,500,400,0,130,3.5,0,"[""stopped"",""stopped"",""stopped"",""stopped"",""stopped"",""stopped"",""stopped"",""stopped"",""stopped"",""stopped"",""stopped"",""stopped"",""stopped"",""stopped"",""stopped"",""down"",""down"",""down"",""down"",""down"",""down"",""down"",""down"",""down"",""down"",""down"",""down"",""down"",""down"",""down"",""down"",""down"",""down"",""down"",""down"",""down"",""down"",""down"",""stopped"",""stopped"",""stopped"",""stopped"",""stopped"",""stopped"",""stopped"",""stopped"",""stopped"",""stopped"",""stopped"",""stopped"",""stopped"",""stopped"",""stopped"",""stopped"",""right"",""stopped"",""stopped"",""stopped"",""stopped"",""stopped"",""stopped"",""right"",""right"",""right"",""right"",""right"",""right"",""right"",""right"",""right"",""right"",""right"",""right"",""right"",""right"",""right"",""right"",""right"",""right"",""right"",""right"",""right"",""right"",""right"",""right"",""right"",""right"",""right"",""right"",""right"",""right"",""right"",""right"",""right"",""right"",""right"",""right"",""right"",""right"",""right"",""right"",""right"",""right"",""right"",""right"",""right"",""right"",""right"",""right"",""right"",""right"",""right"",""right"",""right"",""right"",""right"",""right"",""right"",""right"",""right"",""right""]","[0,0,0,0,0,0,0,0,0,0,0,0,0,0,0,1,1,1,1,1,1,1,1,1,1,1,1,1,1,1,1,1,1,1,1,1,1,1,0,0,0,0,0,0,0,0,0,0,0,0,0,0,0,0,1,0,0,0,0,0,0,1,1,1,1,1,1,1,1,1,1,1,1,1,1,1,1,1,1,1,1,1,1,1,1,1,1,1,1,1,1,1,1,1,1,1,1,1,1,1,1,1,1,1,1,1,1,1,1,1,1,1,1,1,1,1,1,1,1,1,1]",250,"[14,63,36]","[-242.5,-170.5,-200.5]","[1,1,1]","[0,0,0]","[0,0,0]","[2.4670000076293945,3.0349998474121094,3.3339998722076416]","[""DownClickDemo"",""RightClickDemo""]",0,100,space,0.024999857,1,0,1,0,1,0,80,0,80,0,1,79,fangyanjun715,23,2,2020-07-15_19h23.10.185,AvatarManual,3.2.2,Win32,60,,,,,,,,,,,,,,,,,,,,,,,,,,,,,,,,,,,,,,,,,,,,,,,,,,,,,,,,,,,,,
,,,,,,,,,,,,,,,,,,,,,,,,,,400,300,0,129,3.5,0,"[""stopped"",""stopped"",""stopped"",""stopped"",""stopped"",""stopped"",""stopped"",""stopped"",""stopped"",""stopped"",""stopped"",""stopped"",""stopped"",""stopped"",""stopped"",""down"",""down"",""down"",""down"",""down"",""down"",""down"",""down"",""down"",""down"",""down"",""down"",""down"",""down"",""down"",""down"",""down"",""down"",""down"",""down"",""down"",""down"",""down"",""down"",""down"",""down"",""down"",""down"",""down"",""down"",""down"",""down"",""down"",""stopped"",""stopped"",""stopped"",""stopped"",""stopped"",""stopped"",""stopped"",""stopped"",""stopped"",""stopped"",""stopped"",""stopped"",""stopped"",""stopped"",""stopped"",""stopped"",""stopped"",""stopped"",""stopped"",""stopped"",""stopped"",""stopped"",""stopped"",""stopped"",""stopped"",""stopped"",""stopped"",""stopped"",""stopped"",""stopped"",""stopped"",""stopped"",""stopped"",""stopped"",""right"",""stopped"",""stopped"",""stopped"",""stopped"",""stopped"",""stopped"",""right"",""right"",""right"",""right"",""right"",""right"",""right"",""right"",""right"",""right"",""right"",""right"",""right"",""right"",""right"",""right"",""right"",""right"",""right"",""right"",""right"",""right"",""right"",""right"",""right"",""right"",""right"",""right"",""right"",""right"",""right"",""right""]","[0,0,0,0,0,0,0,0,0,0,0,0,0,0,0,1,1,1,1,1,1,1,1,1,1,1,1,1,1,1,1,1,1,1,1,1,1,1,1,1,1,1,1,1,1,1,1,1,0,0,0,0,0,0,0,0,0,0,0,0,0,0,0,0,0,0,0,0,0,0,0,0,0,0,0,0,0,0,0,0,0,0,1,0,0,0,0,0,0,1,1,1,1,1,1,1,1,1,1,1,1,1,1,1,1,1,1,1,1,1,1,1,1,1,1,1,1,1,1,1,1]",251,"[-3,86,9,25]","[-243.5,-185.5,-216.5,-192.5]","[1,1,1,1]","[0,0,0,0]","[0,0,0,0]","[2.4010000228881836,3.1010000705718994,3.3340001106262207,3.634999990463257]","[""DownClickDemo"",""RightClickDemo""]",0,100,space,0.284000158,1,0,1,0,1,0,80,0,80,0,1,79,fangyanjun715,23,2,2020-07-15_19h23.10.185,AvatarManual,3.2.2,Win32,60,,,,,,,,,,,,,,,,,,,,,,,,,,,,,,,,,,,,,,,,,,,,,,,,,,,,,,,,,,,,,
,,,,,,,,,,,,,,,,,,,,,,,,,,500,-400,0,136,3.5,0,"[""stopped"",""stopped"",""stopped"",""stopped"",""stopped"",""stopped"",""stopped"",""stopped"",""stopped"",""stopped"",""stopped"",""stopped"",""stopped"",""stopped"",""down"",""down"",""down"",""down"",""down"",""down"",""down"",""down"",""down"",""down"",""down"",""down"",""down"",""down"",""down"",""down"",""down"",""down"",""down"",""down"",""down"",""stopped"",""stopped"",""stopped"",""stopped"",""stopped"",""stopped"",""stopped"",""stopped"",""stopped"",""stopped"",""stopped"",""stopped"",""stopped"",""stopped"",""stopped"",""stopped"",""left"",""left"",""left"",""left"",""left"",""left"",""left"",""left"",""left"",""left"",""left"",""left"",""left"",""left"",""left"",""left"",""left"",""left"",""left"",""left"",""left"",""left"",""left"",""left"",""left"",""left"",""left"",""left"",""left"",""left"",""left"",""left"",""left"",""left"",""left"",""left"",""left"",""left"",""left"",""left"",""left"",""left"",""left"",""left"",""left"",""left"",""left"",""left"",""left"",""left"",""left"",""left"",""left"",""left"",""left"",""left"",""left"",""left"",""left"",""left"",""left"",""left"",""left"",""left"",""left"",""left"",""left"",""left"",""left"",""left""]","[0,0,0,0,0,0,0,0,0,0,0,0,0,0,1,1,1,1,1,1,1,1,1,1,1,1,1,1,1,1,1,1,1,1,1,0,0,0,0,0,0,0,0,0,0,0,0,0,0,0,0,1,1,1,1,1,1,1,1,1,1,1,1,1,1,1,1,1,1,1,1,1,1,1,1,1,1,1,1,1,1,1,1,1,1,1,1,1,1,1,1,1,1,1,1,1,1,1,1,1,1,1,1,1,1,1,1,1,1,1,1,1,1,1,1,1,1,1,1,1,1]",233,"[-4,2,-39]","[-236.5,-242.5,-192.5]","[1,1,1]","[0,0,0]","[0,0,0]","[2.934000015258789,6.500999927520752,7.1519999504089355]","[""DownClickDemo"",""DownClickDemo"",""LeftClickDemo""]",0,100,space,0.319000006,1,0,1,0,1,0,80,0,80,0,1,79,fangyanjun715,23,2,2020-07-15_19h23.10.185,AvatarManual,3.2.2,Win32,60,,,,,,,,,,,,,,,,,,,,,,,,,,,,,,,,,,,,,,,,,,,,,,,,,,,,,,,,,,,,,
,,,,,,,,,,,,,,,,,,,,,,,,,,500,400,0,145,3.5,0,"[""stopped"",""stopped"",""stopped"",""stopped"",""stopped"",""stopped"",""stopped"",""stopped"",""stopped"",""stopped"",""stopped"",""stopped"",""stopped"",""stopped"",""down"",""down"",""down"",""down"",""down"",""down"",""down"",""down"",""down"",""down"",""down"",""down"",""down"",""down"",""down"",""down"",""down"",""down"",""down"",""down"",""down"",""down"",""down"",""down"",""down"",""down"",""down"",""down"",""down"",""down"",""down"",""down"",""stopped"",""stopped"",""stopped"",""stopped"",""stopped"",""stopped"",""stopped"",""stopped"",""stopped"",""stopped"",""stopped"",""stopped"",""stopped"",""stopped"",""stopped"",""stopped"",""stopped"",""right"",""right"",""right"",""right"",""right"",""stopped"",""stopped"",""stopped"",""stopped"",""stopped"",""stopped"",""right"",""right"",""right"",""right"",""right"",""right"",""right"",""right"",""right"",""right"",""right"",""right"",""right"",""right"",""right"",""right"",""right"",""right"",""right"",""right"",""right"",""right"",""right"",""right"",""right"",""right"",""right"",""right"",""right"",""right"",""right"",""right"",""right"",""right"",""right"",""right"",""right"",""right"",""right"",""right"",""right"",""right"",""right"",""right"",""right"",""right"",""right""]","[0,0,0,0,0,0,0,0,0,0,0,0,0,0,1,1,1,1,1,1,1,1,1,1,1,1,1,1,1,1,1,1,1,1,1,1,1,1,1,1,1,1,1,1,1,1,0,0,0,0,0,0,0,0,0,0,0,0,0,0,0,0,0,1,1,1,1,1,0,0,0,0,0,0,1,1,1,1,1,1,1,1,1,1,1,1,1,1,1,1,1,1,1,1,1,1,1,1,1,1,1,1,1,1,1,1,1,1,1,1,1,1,1,1,1,1,1,1,1,1,1]",232,"[6,18,34]","[-241.5,-202.5,-194.5]","[1,1,1]","[0,0,0]","[0,0,0]","[2.7330000400543213,3.4670000076293945,3.7339999675750732]","[""DownClickDemo"",""RightClickDemo""]",0,100,space,0.177000046,1,0,1,0,1,0,80,0,80,0,1,79,fangyanjun715,23,2,2020-07-15_19h23.10.185,AvatarManual,3.2.2,Win32,60,,,,,,,,,,,,,,,,,,,,,,,,,,,,,,,,,,,,,,,,,,,,,,,,,,,,,,,,,,,,,
,,,,,,,,,,,,,,,,,,,,,,,,,,400,-300,0,74,3.5,0,"[""stopped"",""stopped"",""stopped"",""stopped"",""stopped"",""stopped"",""stopped"",""stopped"",""stopped"",""stopped"",""stopped"",""stopped"",""stopped"",""stopped"",""stopped"",""stopped"",""stopped"",""stopped"",""left"",""left"",""left"",""left"",""left"",""left"",""left"",""left"",""left"",""left"",""left"",""left"",""left"",""left"",""left"",""left"",""left"",""left"",""left"",""left"",""left"",""left"",""left"",""left"",""left"",""left"",""left"",""left"",""left"",""left"",""left"",""left"",""left"",""left"",""left"",""left"",""left"",""left"",""left"",""left"",""left"",""left"",""left"",""left"",""left"",""left"",""left"",""left"",""left"",""left"",""left"",""left"",""left"",""left"",""left"",""left"",""left"",""left"",""left"",""left"",""left"",""left"",""left"",""left"",""left"",""left"",""left"",""left"",""left"",""left"",""left"",""left"",""left"",""left"",""left"",""left"",""stopped"",""stopped"",""stopped"",""stopped"",""stopped"",""stopped"",""stopped"",""stopped"",""stopped"",""stopped"",""stopped"",""stopped"",""stopped"",""stopped"",""left"",""left"",""left"",""stopped"",""stopped"",""stopped"",""stopped"",""stopped"",""stopped"",""stopped"",""stopped"",""stopped"",""stopped""]","[0,0,0,0,0,0,0,0,0,0,0,0,0,0,0,0,0,0,1,1,1,1,1,1,1,1,1,1,1,1,1,1,1,1,1,1,1,1,1,1,1,1,1,1,1,1,1,1,1,1,1,1,1,1,1,1,1,1,1,1,1,1,1,1,1,1,1,1,1,1,1,1,1,1,1,1,1,1,1,1,1,1,1,1,1,1,1,1,1,1,1,1,1,1,0,0,0,0,0,0,0,0,0,0,0,0,0,0,1,1,1,0,0,0,0,0,0,0,0,0,0]",383,"[-41,-41]","[-199.5,-199.5]","[1,1]","[0,0]","[0,0]","[1.6339998245239258,3.303999900817871]","[""LeftClickDemo"",""LeftClickDemo""]",0,100,space,1.000999928,1,0,1,0,1,0,80,0,80,0,1,79,fangyanjun715,23,2,2020-07-15_19h23.10.185,AvatarManual,3.2.2,Win32,60,,,,,,,,,,,,,,,,,,,,,,,,,,,,,,,,,,,,,,,,,,,,,,,,,,,,,,,,,,,,,
,,,,,,,,,,,,,,,,,,,,,,,,,,300,-200,0,109,3.5,0,"[""stopped"",""stopped"",""stopped"",""stopped"",""stopped"",""stopped"",""stopped"",""stopped"",""stopped"",""stopped"",""stopped"",""stopped"",""stopped"",""stopped"",""stopped"",""stopped"",""stopped"",""stopped"",""stopped"",""stopped"",""stopped"",""left"",""left"",""left"",""left"",""left"",""left"",""left"",""left"",""left"",""left"",""left"",""left"",""left"",""left"",""left"",""left"",""left"",""left"",""left"",""left"",""left"",""left"",""left"",""left"",""left"",""left"",""left"",""left"",""left"",""left"",""left"",""left"",""left"",""left"",""left"",""left"",""left"",""left"",""left"",""left"",""left"",""left"",""left"",""left"",""stopped"",""stopped"",""stopped"",""stopped"",""stopped"",""stopped"",""stopped"",""stopped"",""stopped"",""stopped"",""stopped"",""stopped"",""stopped"",""stopped"",""stopped"",""stopped"",""down"",""down"",""down"",""down"",""down"",""down"",""down"",""down"",""down"",""down"",""down"",""down"",""down"",""down"",""down"",""down"",""down"",""down"",""down"",""down"",""down"",""down"",""down"",""down"",""down"",""down"",""down"",""down"",""down"",""down"",""down"",""down"",""down"",""down"",""down"",""down"",""stopped"",""stopped"",""stopped"",""stopped""]","[0,0,0,0,0,0,0,0,0,0,0,0,0,0,0,0,0,0,0,0,0,1,1,1,1,1,1,1,1,1,1,1,1,1,1,1,1,1,1,1,1,1,1,1,1,1,1,1,1,1,1,1,1,1,1,1,1,1,1,1,1,1,1,1,1,0,0,0,0,0,0,0,0,0,0,0,0,0,0,0,0,1,1,1,1,1,1,1,1,1,1,1,1,1,1,1,1,1,1,1,1,1,1,1,1,1,1,1,1,1,1,1,1,1,1,1,1,0,0,0,0]",350,"[-42,17]","[-202.5,-232.5]","[1,1]","[0,0]","[0,0]","[2.1679999828338623,3.1679999828338623]","[""LeftClickDemo"",""DownClickDemo""]",0,100,space,0.454999924,1,0,1,0,1,0,80,0,80,0,1,79,fangyanjun715,23,2,2020-07-15_19h23.10.185,AvatarManual,3.2.2,Win32,60,,,,,,,,,,,,,,,,,,,,,,,,,,,,,,,,,,,,,,,,,,,,,,,,,,,,,,,,,,,,,
,,,,,,,,,,,,,,,,,,,,,,,,,,500,-400,0,93,3.5,0,"[""stopped"",""stopped"",""stopped"",""stopped"",""stopped"",""stopped"",""stopped"",""stopped"",""stopped"",""stopped"",""stopped"",""stopped"",""stopped"",""stopped"",""stopped"",""stopped"",""stopped"",""stopped"",""stopped"",""stopped"",""stopped"",""down"",""down"",""down"",""down"",""down"",""down"",""down"",""down"",""down"",""down"",""down"",""down"",""down"",""down"",""down"",""down"",""down"",""down"",""down"",""down"",""down"",""down"",""down"",""down"",""down"",""stopped"",""stopped"",""stopped"",""stopped"",""stopped"",""stopped"",""stopped"",""left"",""left"",""left"",""left"",""left"",""left"",""left"",""left"",""left"",""left"",""left"",""left"",""left"",""left"",""left"",""left"",""left"",""left"",""left"",""left"",""left"",""left"",""left"",""left"",""left"",""left"",""left"",""left"",""left"",""left"",""left"",""left"",""left"",""left"",""left"",""left"",""left"",""left"",""left"",""left"",""left"",""left"",""left"",""left"",""left"",""left"",""left"",""left"",""left"",""left"",""left"",""left"",""left"",""left"",""left"",""left"",""left"",""left"",""left"",""left"",""left"",""left"",""left"",""left"",""left"",""left"",""left"",""left""]","[0,0,0,0,0,0,0,0,0,0,0,0,0,0,0,0,0,0,0,0,0,1,1,1,1,1,1,1,1,1,1,1,1,1,1,1,1,1,1,1,1,1,1,1,1,1,0,0,0,0,0,0,0,1,1,1,1,1,1,1,1,1,1,1,1,1,1,1,1,1,1,1,1,1,1,1,1,1,1,1,1,1,1,1,1,1,1,1,1,1,1,1,1,1,1,1,1,1,1,1,1,1,1,1,1,1,1,1,1,1,1,1,1,1,1,1,1,1,1,1,1]",366,"[-9,-43]","[-228.5,-204.5]","[1,1]","[0,0]","[0,0]","[3.0339999198913574,3.61899995803833]","[""DownClickDemo"",""LeftClickDemo""]",0,100,space,0.100000143,1,0,1,0,1,0,80,0,80,0,1,79,fangyanjun715,23,2,2020-07-15_19h23.10.185,AvatarManual,3.2.2,Win32,60,,,,,,,,,,,,,,,,,,,,,,,,,,,,,,,,,,,,,,,,,,,,,,,,,,,,,,,,,,,,,
,,,,,,,,,,,,,,,,,,,,,,,,,,400,-300,0,141,3.5,0,"[""stopped"",""stopped"",""stopped"",""stopped"",""stopped"",""stopped"",""down"",""down"",""down"",""down"",""down"",""down"",""down"",""down"",""down"",""down"",""down"",""down"",""down"",""down"",""down"",""down"",""down"",""down"",""down"",""down"",""down"",""down"",""down"",""down"",""stopped"",""stopped"",""stopped"",""stopped"",""stopped"",""stopped"",""stopped"",""stopped"",""stopped"",""stopped"",""down"",""down"",""down"",""down"",""down"",""down"",""stopped"",""stopped"",""stopped"",""stopped"",""stopped"",""stopped"",""left"",""left"",""left"",""left"",""left"",""left"",""left"",""left"",""left"",""left"",""left"",""left"",""left"",""left"",""left"",""left"",""left"",""left"",""left"",""left"",""left"",""left"",""left"",""left"",""left"",""left"",""left"",""left"",""left"",""left"",""left"",""left"",""left"",""left"",""left"",""left"",""left"",""left"",""left"",""left"",""left"",""left"",""left"",""left"",""left"",""left"",""left"",""left"",""left"",""left"",""left"",""left"",""left"",""left"",""left"",""left"",""left"",""left"",""left"",""left"",""left"",""left"",""left"",""left"",""left"",""left"",""left"",""left"",""left""]","[0,0,0,0,0,0,1,1,1,1,1,1,1,1,1,1,1,1,1,1,1,1,1,1,1,1,1,1,1,1,0,0,0,0,0,0,0,0,0,0,1,1,1,1,1,1,0,0,0,0,0,0,1,1,1,1,1,1,1,1,1,1,1,1,1,1,1,1,1,1,1,1,1,1,1,1,1,1,1,1,1,1,1,1,1,1,1,1,1,1,1,1,1,1,1,1,1,1,1,1,1,1,1,1,1,1,1,1,1,1,1,1,1,1,1,1,1,1,1,1,1]",100,"[12,-2,-6,-6,-46]","[-220.5,-244.5,-244.5,-244.5,-214.5]","[1,1,1,1,1]","[0,0,0,0,0]","[0,0,0,0,0]","[0.5679998397827148,3.301999807357788,6.768999814987183,7.500999927520752,7.769999980926514]","[""DownClickDemo"",""DownClickDemo"",""DownClickDemo"",""DownClickDemo"",""LeftClickDemo""]",0,100,space,0.417000055,1,0,1,0,1,0,80,0,80,0,1,79,fangyanjun715,23,2,2020-07-15_19h23.10.185,AvatarManual,3.2.2,Win32,60,,,,,,,,,,,,,,,,,,,,,,,,,,,,,,,,,,,,,,,,,,,,,,,,,,,,,,,,,,,,,
,,,,,,,,,,,,,,,,,,,,,,,,,,200,-100,0,98,3.5,1,"[""stopped"",""stopped"",""stopped"",""stopped"",""stopped"",""stopped"",""stopped"",""stopped"",""stopped"",""stopped"",""stopped"",""stopped"",""stopped"",""stopped"",""stopped"",""stopped"",""stopped"",""down"",""down"",""down"",""down"",""down"",""down"",""down"",""down"",""down"",""down"",""down"",""down"",""down"",""down"",""down"",""down"",""down"",""down"",""down"",""down"",""down"",""down"",""down"",""down"",""stopped"",""stopped"",""stopped"",""stopped"",""stopped"",""stopped"",""stopped"",""stopped"",""stopped"",""stopped"",""stopped"",""left"",""left"",""left"",""left"",""left"",""left"",""left"",""left"",""left"",""left"",""left"",""left"",""left"",""left"",""left"",""left"",""left""]","[0,0,0,0,0,0,0,0,0,0,0,0,0,0,0,0,0,1,1,1,1,1,1,1,1,1,1,1,1,1,1,1,1,1,1,1,1,1,1,1,1,0,0,0,0,0,0,0,0,0,0,0,1,1,1,1,1,1,1,1,1,1,1,1,1,1,1,1,1]",283,"[-1,-47]","[-228.5,-190.5]","[1,1]","[0,0]","[0,0]","[2.934000015258789,3.5190000534057617]","[""DownClickDemo"",""LeftClickDemo""]",0,100,space,0.434999943,1,0,1,0,1,0,80,0,80,0,1,79,fangyanjun715,23,2,2020-07-15_19h23.10.185,AvatarManual,3.2.2,Win32,60,,,,,,,,,,,,,,,,,,,,,,,,,,,,,,,,,,,,,,,,,,,,,,,,,,,,,,,,,,,,,
,,,,,,,,,,,,,,,,,,,,,,,,,,300,-200,0,65,3.5,0,"[""stopped"",""stopped"",""stopped"",""stopped"",""stopped"",""stopped"",""stopped"",""stopped"",""stopped"",""stopped"",""stopped"",""stopped"",""stopped"",""stopped"",""stopped"",""stopped"",""stopped"",""stopped"",""stopped"",""stopped"",""stopped"",""stopped"",""stopped"",""stopped"",""stopped"",""stopped"",""stopped"",""down"",""down"",""down"",""down"",""down"",""down"",""down"",""down"",""down"",""down"",""down"",""down"",""down"",""down"",""down"",""down"",""down"",""down"",""down"",""down"",""down"",""down"",""down"",""down"",""down"",""down"",""down"",""down"",""down"",""stopped"",""stopped"",""stopped"",""stopped"",""stopped"",""stopped"",""stopped"",""stopped"",""stopped"",""stopped"",""stopped"",""stopped"",""stopped"",""stopped"",""stopped"",""stopped"",""stopped"",""stopped"",""stopped"",""stopped"",""stopped"",""stopped"",""stopped"",""stopped"",""stopped"",""stopped"",""stopped"",""stopped"",""stopped"",""stopped"",""stopped"",""stopped"",""stopped"",""stopped"",""stopped"",""stopped"",""stopped"",""stopped"",""stopped"",""left"",""left"",""left"",""left"",""left"",""left"",""left"",""left"",""left"",""left"",""left"",""left"",""left"",""left"",""left"",""left"",""left"",""left"",""left"",""left"",""left"",""left"",""left"",""left"",""left"",""left""]","[0,0,0,0,0,0,0,0,0,0,0,0,0,0,0,0,0,0,0,0,0,0,0,0,0,0,0,1,1,1,1,1,1,1,1,1,1,1,1,1,1,1,1,1,1,1,1,1,1,1,1,1,1,1,1,1,0,0,0,0,0,0,0,0,0,0,0,0,0,0,0,0,0,0,0,0,0,0,0,0,0,0,0,0,0,0,0,0,0,0,0,0,0,0,0,1,1,1,1,1,1,1,1,1,1,1,1,1,1,1,1,1,1,1,1,1,1,1,1,1,1]",448,"[-12,-66,-49]","[-236.5,-181.5,-199.5]","[1,1,1]","[0,0,0]","[0,0,0]","[1.5339999198913574,2.184000015258789,2.7029998302459717]","[""DownClickDemo"",""LeftClickDemo""]",0,100,space,0.291000128,1,0,1,0,1,0,80,0,80,0,1,79,fangyanjun715,23,2,2020-07-15_19h23.10.185,AvatarManual,3.2.2,Win32,60,,,,,,,,,,,,,,,,,,,,,,,,,,,,,,,,,,,,,,,,,,,,,,,,,,,,,,,,,,,,,
,,,,,,,,,,,,,,,,,,,,,,,,,,200,100,0,118,3.5,1,"[""stopped"",""stopped"",""stopped"",""stopped"",""stopped"",""stopped"",""stopped"",""stopped"",""stopped"",""stopped"",""stopped"",""down"",""down"",""down"",""down"",""down"",""down"",""down"",""down"",""down"",""down"",""down"",""down"",""down"",""down"",""down"",""down"",""down"",""down"",""stopped"",""stopped"",""stopped"",""stopped"",""stopped"",""stopped"",""stopped"",""stopped"",""stopped"",""stopped"",""right"",""right"",""right"",""right"",""right"",""right"",""right"",""right"",""right"",""right"",""right"",""right"",""right"",""right"",""right"",""right"",""right"",""right"",""right"",""right"",""right"",""right""]","[0,0,0,0,0,0,0,0,0,0,0,1,1,1,1,1,1,1,1,1,1,1,1,1,1,1,1,1,1,0,0,0,0,0,0,0,0,0,0,1,1,1,1,1,1,1,1,1,1,1,1,1,1,1,1,1,1,1,1,1,1]",183,"[7,51]","[-238.5,-193.5]","[1,1]","[0,0]","[0,0]","[2.1509997844696045,2.7019999027252197]","[""DownClickDemo"",""RightClickDemo""]",0,100,space,0.034999847,1,0,1,0,1,0,80,0,80,0,1,79,fangyanjun715,23,2,2020-07-15_19h23.10.185,AvatarManual,3.2.2,Win32,60,,,,,,,,,,,,,,,,,,,,,,,,,,,,,,,,,,,,,,,,,,,,,,,,,,,,,,,,,,,,,
,,,,,,,,,,,,,,,,,,,,,,,,,,400,-300,0,86,3.5,0,"[""stopped"",""stopped"",""stopped"",""stopped"",""stopped"",""stopped"",""stopped"",""stopped"",""stopped"",""stopped"",""stopped"",""stopped"",""stopped"",""stopped"",""stopped"",""left"",""left"",""left"",""left"",""left"",""left"",""left"",""left"",""left"",""left"",""left"",""left"",""left"",""left"",""left"",""left"",""left"",""left"",""left"",""left"",""left"",""left"",""left"",""left"",""left"",""left"",""left"",""left"",""left"",""left"",""left"",""left"",""left"",""left"",""left"",""left"",""left"",""left"",""left"",""left"",""left"",""left"",""left"",""left"",""left"",""left"",""left"",""left"",""left"",""left"",""left"",""left"",""left"",""left"",""left"",""left"",""left"",""left"",""left"",""left"",""left"",""left"",""left"",""left"",""left"",""left"",""left"",""left"",""left"",""left"",""left"",""left"",""left"",""stopped"",""stopped"",""stopped"",""stopped"",""stopped"",""stopped"",""stopped"",""stopped"",""stopped"",""stopped"",""stopped"",""stopped"",""stopped"",""stopped"",""stopped"",""stopped"",""down"",""stopped"",""stopped"",""stopped"",""stopped"",""stopped"",""down"",""down"",""down"",""down"",""down"",""down"",""down"",""down"",""down"",""down"",""down""]","[0,0,0,0,0,0,0,0,0,0,0,0,0,0,0,1,1,1,1,1,1,1,1,1,1,1,1,1,1,1,1,1,1,1,1,1,1,1,1,1,1,1,1,1,1,1,1,1,1,1,1,1,1,1,1,1,1,1,1,1,1,1,1,1,1,1,1,1,1,1,1,1,1,1,1,1,1,1,1,1,1,1,1,1,1,1,1,1,0,0,0,0,0,0,0,0,0,0,0,0,0,0,0,0,1,0,0,0,0,0,1,1,1,1,1,1,1,1,1,1,1]",250,"[-40,0,-18]","[-191.5,-218.5,-242.5]","[1,1,1]","[0,0,0]","[0,0,0]","[1.682999849319458,3.1050000190734863,3.3489999771118164]","[""LeftClickDemo"",""DownClickDemo""]",0,100,space,0.204999924,1,0,1,0,1,0,80,0,80,0,1,79,fangyanjun715,23,2,2020-07-15_19h23.10.185,AvatarManual,3.2.2,Win32,60,,,,,,,,,,,,,,,,,,,,,,,,,,,,,,,,,,,,,,,,,,,,,,,,,,,,,,,,,,,,,
,,,,,,,,,,,,,,,,,,,,,,,,,,300,200,0,95,3.5,0,"[""stopped"",""stopped"",""stopped"",""stopped"",""stopped"",""stopped"",""stopped"",""stopped"",""stopped"",""stopped"",""stopped"",""stopped"",""stopped"",""stopped"",""stopped"",""stopped"",""stopped"",""stopped"",""stopped"",""stopped"",""right"",""right"",""right"",""right"",""right"",""right"",""right"",""right"",""right"",""right"",""right"",""right"",""right"",""right"",""right"",""right"",""right"",""right"",""right"",""right"",""right"",""right"",""right"",""right"",""right"",""right"",""right"",""right"",""right"",""right"",""right"",""right"",""right"",""right"",""right"",""right"",""right"",""right"",""right"",""stopped"",""stopped"",""stopped"",""stopped"",""stopped"",""stopped"",""stopped"",""stopped"",""stopped"",""stopped"",""stopped"",""down"",""down"",""down"",""down"",""down"",""down"",""down"",""down"",""down"",""down"",""down"",""down"",""down"",""down"",""down"",""down"",""down"",""down"",""down"",""down"",""down"",""down"",""down"",""down"",""down"",""down"",""down"",""down"",""down"",""down"",""down"",""down"",""down"",""stopped"",""stopped"",""stopped"",""stopped"",""stopped"",""stopped"",""stopped"",""stopped"",""stopped"",""stopped"",""stopped"",""stopped"",""stopped"",""stopped"",""right"",""right"",""right"",""right""]","[0,0,0,0,0,0,0,0,0,0,0,0,0,0,0,0,0,0,0,0,1,1,1,1,1,1,1,1,1,1,1,1,1,1,1,1,1,1,1,1,1,1,1,1,1,1,1,1,1,1,1,1,1,1,1,1,1,1,1,0,0,0,0,0,0,0,0,0,0,0,1,1,1,1,1,1,1,1,1,1,1,1,1,1,1,1,1,1,1,1,1,1,1,1,1,1,1,1,1,1,1,1,1,0,0,0,0,0,0,0,0,0,0,0,0,0,0,1,1,1,1]",333,"[41,-13,33]","[-204.5,-249.5,-193.5]","[1,1,1]","[0,0,0]","[0,0,0]","[1.9010000228881836,3.1690001487731934,4.101999998092651]","[""RightClickDemo"",""DownClickDemo"",""RightClickDemo""]",0,100,space,0.167999983,1,0,1,0,1,0,80,0,80,0,1,79,fangyanjun715,23,2,2020-07-15_19h23.10.185,AvatarManual,3.2.2,Win32,60,,,,,,,,,,,,,,,,,,,,,,,,,,,,,,,,,,,,,,,,,,,,,,,,,,,,,,,,,,,,,
,,,,,,,,,,,,,,,,,,,,,,,,,,400,300,0,98,3.5,0,"[""stopped"",""stopped"",""stopped"",""stopped"",""stopped"",""stopped"",""stopped"",""stopped"",""stopped"",""stopped"",""stopped"",""stopped"",""stopped"",""stopped"",""stopped"",""stopped"",""stopped"",""stopped"",""down"",""down"",""down"",""down"",""down"",""down"",""down"",""down"",""down"",""down"",""down"",""down"",""down"",""down"",""down"",""down"",""down"",""down"",""down"",""down"",""down"",""down"",""down"",""down"",""down"",""down"",""down"",""down"",""stopped"",""stopped"",""stopped"",""stopped"",""stopped"",""stopped"",""stopped"",""stopped"",""stopped"",""stopped"",""stopped"",""stopped"",""right"",""right"",""right"",""right"",""right"",""right"",""right"",""right"",""right"",""right"",""right"",""right"",""right"",""right"",""right"",""right"",""right"",""right"",""right"",""right"",""right"",""right"",""right"",""right"",""right"",""right"",""right"",""right"",""right"",""right"",""right"",""right"",""right"",""right"",""right"",""right"",""right"",""right"",""right"",""right"",""right"",""right"",""right"",""right"",""right"",""right"",""right"",""right"",""right"",""right"",""right"",""right"",""right"",""right"",""right"",""right"",""right"",""right"",""right"",""right"",""right"",""right"",""right""]","[0,0,0,0,0,0,0,0,0,0,0,0,0,0,0,0,0,0,1,1,1,1,1,1,1,1,1,1,1,1,1,1,1,1,1,1,1,1,1,1,1,1,1,1,1,1,0,0,0,0,0,0,0,0,0,0,0,0,1,1,1,1,1,1,1,1,1,1,1,1,1,1,1,1,1,1,1,1,1,1,1,1,1,1,1,1,1,1,1,1,1,1,1,1,1,1,1,1,1,1,1,1,1,1,1,1,1,1,1,1,1,1,1,1,1,1,1,1,1,1,1]",316,"[2,38]","[-246.5,-196.5]","[1,1]","[0,0]","[0,0]","[1.934000015258789,2.634999990463257]","[""DownClickDemo"",""RightClickDemo""]",0,100,space,0.039999962,1,0,1,0,1,0,80,0,80,0,1,79,fangyanjun715,23,2,2020-07-15_19h23.10.185,AvatarManual,3.2.2,Win32,60,,,,,,,,,,,,,,,,,,,,,,,,,,,,,,,,,,,,,,,,,,,,,,,,,,,,,,,,,,,,,
,,,,,,,,,,,,,,,,,,,,,,,,,,500,400,0,91,3.5,0,"[""stopped"",""stopped"",""stopped"",""stopped"",""stopped"",""stopped"",""stopped"",""stopped"",""stopped"",""stopped"",""stopped"",""stopped"",""stopped"",""stopped"",""stopped"",""stopped"",""stopped"",""right"",""right"",""right"",""right"",""right"",""right"",""right"",""right"",""right"",""right"",""right"",""right"",""right"",""right"",""right"",""right"",""right"",""right"",""right"",""right"",""right"",""right"",""right"",""right"",""right"",""right"",""right"",""right"",""right"",""right"",""right"",""right"",""right"",""right"",""right"",""right"",""right"",""right"",""right"",""right"",""right"",""right"",""right"",""right"",""right"",""right"",""right"",""right"",""right"",""right"",""right"",""right"",""right"",""right"",""right"",""right"",""right"",""right"",""right"",""right"",""right"",""right"",""right"",""right"",""right"",""right"",""right"",""right"",""right"",""right"",""right"",""right"",""right"",""right"",""right"",""right"",""right"",""right"",""right"",""right"",""right"",""right"",""right"",""right"",""right"",""right"",""right"",""right"",""right"",""right"",""right"",""right"",""right"",""right"",""right"",""right"",""right"",""right"",""right"",""right"",""right"",""right"",""right"",""right""]","[0,0,0,0,0,0,0,0,0,0,0,0,0,0,0,0,0,1,1,1,1,1,1,1,1,1,1,1,1,1,1,1,1,1,1,1,1,1,1,1,1,1,1,1,1,1,1,1,1,1,1,1,1,1,1,1,1,1,1,1,1,1,1,1,1,1,1,1,1,1,1,1,1,1,1,1,1,1,1,1,1,1,1,1,1,1,1,1,1,1,1,1,1,1,1,1,1,1,1,1,1,1,1,1,1,1,1,1,1,1,1,1,1,1,1,1,1,1,1,1,1]",284,[46],[-193.5],[1],[0],[0],[1.8339998722076416],"[""RightClickDemo""]",0,100,space,0.453000069,1,0,1,0,1,0,80,0,80,0,1,79,fangyanjun715,23,2,2020-07-15_19h23.10.185,AvatarManual,3.2.2,Win32,60,,,,,,,,,,,,,,,,,,,,,,,,,,,,,,,,,,,,,,,,,,,,,,,,,,,,,,,,,,,,,
,,,,,,,,,,,,,,,,,,,,,,,,,,400,-300,0,94,3.5,0,"[""stopped"",""stopped"",""stopped"",""stopped"",""stopped"",""stopped"",""stopped"",""stopped"",""stopped"",""stopped"",""stopped"",""stopped"",""stopped"",""stopped"",""stopped"",""left"",""left"",""left"",""left"",""left"",""left"",""left"",""left"",""left"",""left"",""left"",""left"",""left"",""left"",""left"",""left"",""left"",""left"",""left"",""left"",""left"",""left"",""left"",""left"",""left"",""left"",""left"",""left"",""left"",""left"",""left"",""left"",""left"",""left"",""left"",""left"",""left"",""left"",""left"",""left"",""left"",""left"",""left"",""left"",""left"",""left"",""left"",""left"",""left"",""left"",""left"",""left"",""left"",""left"",""left"",""left"",""left"",""left"",""left"",""left"",""left"",""left"",""left"",""left"",""left"",""left"",""left"",""left"",""left"",""left"",""left"",""left"",""left"",""left"",""stopped"",""stopped"",""stopped"",""stopped"",""stopped"",""stopped"",""stopped"",""stopped"",""stopped"",""stopped"",""stopped"",""down"",""down"",""down"",""down"",""down"",""down"",""down"",""down"",""down"",""down"",""down"",""down"",""down"",""down"",""down"",""down"",""down"",""down"",""down"",""down"",""down""]","[0,0,0,0,0,0,0,0,0,0,0,0,0,0,0,1,1,1,1,1,1,1,1,1,1,1,1,1,1,1,1,1,1,1,1,1,1,1,1,1,1,1,1,1,1,1,1,1,1,1,1,1,1,1,1,1,1,1,1,1,1,1,1,1,1,1,1,1,1,1,1,1,1,1,1,1,1,1,1,1,1,1,1,1,1,1,1,1,1,0,0,0,0,0,0,0,0,0,0,0,1,1,1,1,1,1,1,1,1,1,1,1,1,1,1,1,1,1,1,1,1]",250,"[-41,3]","[-193.5,-236.5]","[1,1]","[0,0]","[0,0]","[1.9170000553131104,3.4020001888275146]","[""LeftClickDemo"",""DownClickDemo""]",0,100,space,0.020999908,1,0,1,0,1,0,80,0,80,0,1,79,fangyanjun715,23,2,2020-07-15_19h23.10.185,AvatarManual,3.2.2,Win32,60,,,,,,,,,,,,,,,,,,,,,,,,,,,,,,,,,,,,,,,,,,,,,,,,,,,,,,,,,,,,,
,,,,,,,,,,,,,,,,,,,,,,,,,,200,100,0,125,3.5,1,"[""stopped"",""stopped"",""stopped"",""stopped"",""stopped"",""stopped"",""down"",""down"",""down"",""down"",""down"",""down"",""down"",""down"",""down"",""down"",""down"",""down"",""down"",""stopped"",""stopped"",""stopped"",""stopped"",""stopped"",""stopped"",""stopped"",""stopped"",""stopped"",""stopped"",""stopped"",""stopped"",""stopped"",""stopped"",""stopped"",""stopped"",""stopped"",""stopped"",""stopped"",""stopped"",""stopped"",""stopped"",""down"",""down"",""down"",""down"",""down"",""down"",""stopped"",""stopped"",""stopped"",""stopped"",""stopped"",""stopped"",""stopped"",""stopped"",""stopped"",""stopped"",""stopped"",""right"",""right"",""right"",""right"",""right"",""right"",""right"",""right"",""right"",""right"",""right"",""right"",""right"",""right"",""right"",""right"",""right"",""right"",""right"",""right""]","[0,0,0,0,0,0,1,1,1,1,1,1,1,1,1,1,1,1,1,0,0,0,0,0,0,0,0,0,0,0,0,0,0,0,0,0,0,0,0,0,0,1,1,1,1,1,1,0,0,0,0,0,0,0,0,0,0,0,1,1,1,1,1,1,1,1,1,1,1,1,1,1,1,1,1,1,1,1]",100,"[6,-14,42]","[-232.5,-244.5,-199.5]","[1,1,1]","[0,0,0]","[0,0,0]","[2.184000015258789,2.767000198364258,3.433000087738037]","[""DownClickDemo"",""DownClickDemo"",""RightClickDemo""]",0,100,space,1.203000069,1,0,1,0,1,0,80,0,80,0,1,79,fangyanjun715,23,2,2020-07-15_19h23.10.185,AvatarManual,3.2.2,Win32,60,,,,,,,,,,,,,,,,,,,,,,,,,,,,,,,,,,,,,,,,,,,,,,,,,,,,,,,,,,,,,
,,,,,,,,,,,,,,,,,,,,,,,,,,500,-400,0,72,3.5,0,"[""stopped"",""stopped"",""stopped"",""stopped"",""stopped"",""stopped"",""stopped"",""stopped"",""stopped"",""stopped"",""stopped"",""stopped"",""stopped"",""stopped"",""stopped"",""stopped"",""stopped"",""down"",""down"",""down"",""down"",""down"",""down"",""down"",""down"",""down"",""down"",""down"",""down"",""down"",""down"",""down"",""down"",""down"",""down"",""down"",""down"",""down"",""down"",""stopped"",""stopped"",""stopped"",""stopped"",""stopped"",""stopped"",""stopped"",""stopped"",""stopped"",""stopped"",""stopped"",""stopped"",""stopped"",""stopped"",""stopped"",""stopped"",""stopped"",""stopped"",""stopped"",""stopped"",""stopped"",""stopped"",""stopped"",""stopped"",""left"",""stopped"",""stopped"",""stopped"",""stopped"",""stopped"",""left"",""left"",""left"",""left"",""left"",""left"",""left"",""left"",""left"",""left"",""left"",""left"",""left"",""left"",""left"",""left"",""left"",""left"",""left"",""left"",""left"",""left"",""left"",""left"",""left"",""left"",""left"",""left"",""left"",""left"",""left"",""left"",""left"",""left"",""left"",""left"",""left"",""left"",""left"",""left"",""left"",""left"",""left"",""left"",""left"",""left"",""left"",""left"",""left"",""left"",""left"",""left""]","[0,0,0,0,0,0,0,0,0,0,0,0,0,0,0,0,0,1,1,1,1,1,1,1,1,1,1,1,1,1,1,1,1,1,1,1,1,1,1,0,0,0,0,0,0,0,0,0,0,0,0,0,0,0,0,0,0,0,0,0,0,0,0,1,0,0,0,0,0,1,1,1,1,1,1,1,1,1,1,1,1,1,1,1,1,1,1,1,1,1,1,1,1,1,1,1,1,1,1,1,1,1,1,1,1,1,1,1,1,1,1,1,1,1,1,1,1,1,1,1,1]",283,"[0,-66,-52]","[-233.5,-190.5,-198.5]","[1,1,1]","[0,0,0]","[0,0,0]","[1.566999912261963,2.1010000705718994,2.434000015258789]","[""DownClickDemo"",""LeftClickDemo""]",0,100,space,0.006999969,1,0,1,0,1,0,80,0,80,0,1,79,fangyanjun715,23,2,2020-07-15_19h23.10.185,AvatarManual,3.2.2,Win32,60,,,,,,,,,,,,,,,,,,,,,,,,,,,,,,,,,,,,,,,,,,,,,,,,,,,,,,,,,,,,,
,,,,,,,,,,,,,,,,,,,,,,,,,,500,-400,0,107,3.5,0,"[""stopped"",""stopped"",""stopped"",""stopped"",""stopped"",""stopped"",""stopped"",""stopped"",""stopped"",""stopped"",""stopped"",""stopped"",""stopped"",""stopped"",""stopped"",""down"",""down"",""down"",""down"",""down"",""down"",""down"",""down"",""down"",""down"",""down"",""down"",""down"",""down"",""down"",""down"",""down"",""down"",""down"",""down"",""down"",""down"",""down"",""down"",""down"",""down"",""down"",""down"",""down"",""down"",""down"",""stopped"",""stopped"",""stopped"",""stopped"",""stopped"",""stopped"",""stopped"",""stopped"",""stopped"",""stopped"",""stopped"",""left"",""left"",""left"",""left"",""left"",""left"",""left"",""left"",""left"",""left"",""left"",""left"",""left"",""left"",""left"",""left"",""left"",""left"",""left"",""left"",""left"",""left"",""left"",""left"",""left"",""left"",""left"",""left"",""left"",""left"",""left"",""left"",""left"",""left"",""left"",""left"",""left"",""left"",""left"",""left"",""left"",""left"",""left"",""left"",""left"",""left"",""left"",""left"",""left"",""left"",""left"",""left"",""left"",""left"",""left"",""left"",""left"",""left"",""left"",""left"",""left"",""left"",""left"",""left""]","[0,0,0,0,0,0,0,0,0,0,0,0,0,0,0,1,1,1,1,1,1,1,1,1,1,1,1,1,1,1,1,1,1,1,1,1,1,1,1,1,1,1,1,1,1,1,0,0,0,0,0,0,0,0,0,0,0,1,1,1,1,1,1,1,1,1,1,1,1,1,1,1,1,1,1,1,1,1,1,1,1,1,1,1,1,1,1,1,1,1,1,1,1,1,1,1,1,1,1,1,1,1,1,1,1,1,1,1,1,1,1,1,1,1,1,1,1,1,1,1,1]",250,"[-3,-30]","[-231.5,-192.5]","[1,1]","[0,0]","[0,0]","[2.0180001258850098,2.7190001010894775]","[""DownClickDemo"",""LeftClickDemo""]",0,100,space,0.155999899,1,0,1,0,1,0,80,0,80,0,1,79,fangyanjun715,23,2,2020-07-15_19h23.10.185,AvatarManual,3.2.2,Win32,60,,,,,,,,,,,,,,,,,,,,,,,,,,,,,,,,,,,,,,,,,,,,,,,,,,,,,,,,,,,,,
,,,,,,,,,,,,,,,,,,,,,,,,,,200,-100,0,80,3.5,1,"[""stopped"",""stopped"",""stopped"",""stopped"",""stopped"",""stopped"",""stopped"",""stopped"",""stopped"",""stopped"",""stopped"",""stopped"",""stopped"",""stopped"",""stopped"",""stopped"",""stopped"",""down"",""down"",""down"",""down"",""down"",""down"",""down"",""down"",""down"",""down"",""down"",""down"",""down"",""down"",""down"",""down"",""down"",""down"",""down"",""down"",""down"",""down"",""down"",""down"",""down"",""stopped"",""stopped"",""stopped"",""stopped"",""stopped"",""stopped"",""stopped"",""stopped"",""stopped"",""stopped"",""stopped"",""left"",""left"",""left"",""left"",""left"",""left"",""left"",""left"",""left"",""left"",""left"",""left"",""left"",""left"",""left"",""left"",""left""]","[0,0,0,0,0,0,0,0,0,0,0,0,0,0,0,0,0,1,1,1,1,1,1,1,1,1,1,1,1,1,1,1,1,1,1,1,1,1,1,1,1,1,0,0,0,0,0,0,0,0,0,0,0,1,1,1,1,1,1,1,1,1,1,1,1,1,1,1,1,1]",284,"[-9,-50]","[-237.5,-195.5]","[1,1]","[0,0]","[0,0]","[2.684000015258789,3.2839999198913574]","[""DownClickDemo"",""LeftClickDemo""]",0,100,space,0.960999966,1,0,1,0,1,0,80,0,80,0,1,79,fangyanjun715,23,2,2020-07-15_19h23.10.185,AvatarManual,3.2.2,Win32,60,,,,,,,,,,,,,,,,,,,,,,,,,,,,,,,,,,,,,,,,,,,,,,,,,,,,,,,,,,,,,
,,,,,,,,,,,,,,,,,,,,,,,,,,300,200,0,97,3.5,1,"[""stopped"",""stopped"",""stopped"",""stopped"",""stopped"",""stopped"",""stopped"",""stopped"",""stopped"",""stopped"",""stopped"",""stopped"",""stopped"",""stopped"",""stopped"",""down"",""down"",""down"",""down"",""down"",""down"",""down"",""down"",""down"",""down"",""down"",""down"",""down"",""down"",""down"",""down"",""down"",""down"",""down"",""down"",""down"",""down"",""down"",""down"",""down"",""down"",""down"",""stopped"",""stopped"",""stopped"",""stopped"",""stopped"",""stopped"",""stopped"",""stopped"",""stopped"",""right"",""right"",""right"",""right"",""right"",""right"",""right"",""right"",""right"",""right"",""right"",""right"",""right"",""right"",""right"",""right"",""right"",""right"",""right"",""right"",""right"",""right"",""right"",""right"",""right"",""right"",""right"",""right"",""right"",""right"",""right"",""right"",""right"",""right"",""right"",""right"",""right"",""right"",""right"",""right"",""right"",""right"",""right"",""right"",""right""]","[0,0,0,0,0,0,0,0,0,0,0,0,0,0,0,1,1,1,1,1,1,1,1,1,1,1,1,1,1,1,1,1,1,1,1,1,1,1,1,1,1,1,0,0,0,0,0,0,0,0,0,1,1,1,1,1,1,1,1,1,1,1,1,1,1,1,1,1,1,1,1,1,1,1,1,1,1,1,1,1,1,1,1,1,1,1,1,1,1,1,1,1,1,1,1,1]",250,"[1,51]","[-232.5,-187.5]","[1,1]","[0,0]","[0,0]","[1.8510000705718994,2.4509999752044678]","[""DownClickDemo"",""RightClickDemo""]",0,100,space,0.018000126,1,0,1,0,1,0,80,0,80,0,1,79,fangyanjun715,23,2,2020-07-15_19h23.10.185,AvatarManual,3.2.2,Win32,60,,,,,,,,,,,,,,,,,,,,,,,,,,,,,,,,,,,,,,,,,,,,,,,,,,,,,,,,,,,,,
,,,,,,,,,,,,,,,,,,,,,,,,,,200,-100,0,89,3.5,1,"[""stopped"",""stopped"",""stopped"",""stopped"",""stopped"",""stopped"",""stopped"",""stopped"",""stopped"",""stopped"",""down"",""down"",""down"",""down"",""down"",""down"",""down"",""down"",""down"",""down"",""down"",""down"",""down"",""down"",""down"",""down"",""down"",""down"",""down"",""down"",""stopped"",""stopped"",""stopped"",""stopped"",""stopped"",""stopped"",""stopped"",""stopped"",""stopped"",""stopped"",""stopped"",""stopped"",""stopped"",""stopped"",""stopped"",""stopped"",""stopped"",""stopped"",""stopped"",""stopped"",""stopped"",""left"",""left"",""left"",""left"",""left"",""left"",""left"",""left"",""left"",""left"",""left"",""left"",""left"",""left"",""left"",""left"",""left"",""left"",""left""]","[0,0,0,0,0,0,0,0,0,0,1,1,1,1,1,1,1,1,1,1,1,1,1,1,1,1,1,1,1,1,0,0,0,0,0,0,0,0,0,0,0,0,0,0,0,0,0,0,0,0,0,1,1,1,1,1,1,1,1,1,1,1,1,1,1,1,1,1,1,1]",332,"[-8,-93,-60]","[-238.5,-196.5,-199.5]","[1,1,1]","[0,0,0]","[0,0,0]","[1.815000057220459,2.4760000705718994,2.7710001468658447]","[""DownClickDemo"",""LeftClickDemo""]",0,100,space,0.075999975,1,0,1,0,1,0,80,0,80,0,1,79,fangyanjun715,23,2,2020-07-15_19h23.10.185,AvatarManual,3.2.2,Win32,60,,,,,,,,,,,,,,,,,,,,,,,,,,,,,,,,,,,,,,,,,,,,,,,,,,,,,,,,,,,,,
,,,,,,,,,,,,,,,,,,,,,,,,,,300,-200,0,80,3.5,1,"[""stopped"",""stopped"",""stopped"",""stopped"",""stopped"",""stopped"",""stopped"",""stopped"",""stopped"",""stopped"",""stopped"",""stopped"",""stopped"",""stopped"",""stopped"",""stopped"",""stopped"",""stopped"",""down"",""down"",""down"",""down"",""down"",""down"",""down"",""down"",""down"",""down"",""down"",""down"",""down"",""down"",""down"",""down"",""down"",""down"",""down"",""down"",""down"",""down"",""down"",""down"",""down"",""down"",""down"",""down"",""down"",""down"",""down"",""stopped"",""stopped"",""stopped"",""stopped"",""stopped"",""stopped"",""stopped"",""stopped"",""stopped"",""stopped"",""left"",""left"",""left"",""left"",""left"",""left"",""left"",""left"",""left"",""left"",""left"",""left"",""left"",""left"",""left"",""left"",""left"",""left"",""left"",""left"",""left"",""left"",""left"",""left"",""left"",""left"",""left"",""left"",""left"",""left"",""left"",""left"",""left"",""left"",""left"",""left"",""left"",""left"",""left"",""left"",""left"",""left"",""left"",""left"",""left""]","[0,0,0,0,0,0,0,0,0,0,0,0,0,0,0,0,0,0,1,1,1,1,1,1,1,1,1,1,1,1,1,1,1,1,1,1,1,1,1,1,1,1,1,1,1,1,1,1,1,0,0,0,0,0,0,0,0,0,0,1,1,1,1,1,1,1,1,1,1,1,1,1,1,1,1,1,1,1,1,1,1,1,1,1,1,1,1,1,1,1,1,1,1,1,1,1,1,1,1,1,1,1,1,1]",299,"[0,-48]","[-229.5,-197.5]","[1,1]","[0,0]","[0,0]","[1.633000135421753,2.317000150680542]","[""DownClickDemo"",""LeftClickDemo""]",0,100,space,0.010999918,1,0,1,0,1,0,80,0,80,0,1,79,fangyanjun715,23,2,2020-07-15_19h23.10.185,AvatarManual,3.2.2,Win32,60,,,,,,,,,,,,,,,,,,,,,,,,,,,,,,,,,,,,,,,,,,,,,,,,,,,,,,,,,,,,,
,,,,,,,,,,,,,,,,,,,,,,,,,,500,400,0,114,3.5,0,"[""stopped"",""stopped"",""stopped"",""stopped"",""stopped"",""stopped"",""stopped"",""stopped"",""stopped"",""stopped"",""down"",""down"",""down"",""down"",""down"",""down"",""down"",""down"",""down"",""down"",""down"",""down"",""down"",""down"",""down"",""down"",""down"",""down"",""down"",""down"",""down"",""down"",""down"",""down"",""stopped"",""stopped"",""stopped"",""stopped"",""stopped"",""stopped"",""stopped"",""stopped"",""stopped"",""stopped"",""stopped"",""stopped"",""stopped"",""right"",""right"",""right"",""right"",""right"",""right"",""right"",""right"",""right"",""right"",""right"",""right"",""right"",""right"",""right"",""right"",""right"",""right"",""right"",""right"",""right"",""right"",""right"",""right"",""right"",""right"",""right"",""right"",""right"",""right"",""right"",""right"",""right"",""right"",""right"",""right"",""right"",""right"",""right"",""right"",""right"",""right"",""right"",""right"",""right"",""right"",""right"",""right"",""right"",""right"",""right"",""right"",""right"",""right"",""right"",""right"",""right"",""right"",""right"",""right"",""right"",""right"",""right"",""right"",""right"",""right"",""right"",""right"",""right"",""right"",""right"",""right"",""right"",""right""]","[0,0,0,0,0,0,0,0,0,0,1,1,1,1,1,1,1,1,1,1,1,1,1,1,1,1,1,1,1,1,1,1,1,1,0,0,0,0,0,0,0,0,0,0,0,0,0,1,1,1,1,1,1,1,1,1,1,1,1,1,1,1,1,1,1,1,1,1,1,1,1,1,1,1,1,1,1,1,1,1,1,1,1,1,1,1,1,1,1,1,1,1,1,1,1,1,1,1,1,1,1,1,1,1,1,1,1,1,1,1,1,1,1,1,1,1,1,1,1,1,1]",281,"[7,48]","[-232.5,-179.5]","[1,1]","[0,0]","[0,0]","[2.1989998817443848,3.000999927520752]","[""DownClickDemo"",""RightClickDemo""]",0,100,space,1.121000051,1,0,1,0,1,0,80,0,80,0,1,79,fangyanjun715,23,2,2020-07-15_19h23.10.185,AvatarManual,3.2.2,Win32,60,,,,,,,,,,,,,,,,,,,,,,,,,,,,,,,,,,,,,,,,,,,,,,,,,,,,,,,,,,,,,
,,,,,,,,,,,,,,,,,,,,,,,,,,200,-100,0,89,3.5,1,"[""stopped"",""stopped"",""stopped"",""stopped"",""stopped"",""stopped"",""stopped"",""stopped"",""stopped"",""stopped"",""stopped"",""stopped"",""stopped"",""stopped"",""stopped"",""stopped"",""stopped"",""stopped"",""stopped"",""stopped"",""down"",""down"",""down"",""down"",""down"",""down"",""down"",""down"",""down"",""down"",""down"",""down"",""down"",""down"",""down"",""down"",""down"",""down"",""down"",""down"",""down"",""stopped"",""stopped"",""stopped"",""stopped"",""stopped"",""stopped"",""stopped"",""stopped"",""stopped"",""stopped"",""stopped"",""stopped"",""stopped"",""stopped"",""stopped"",""stopped"",""stopped"",""stopped"",""stopped"",""stopped"",""stopped"",""stopped"",""stopped"",""stopped"",""stopped"",""stopped"",""stopped"",""stopped"",""stopped"",""stopped"",""stopped"",""stopped"",""stopped"",""left"",""left"",""left"",""left"",""left"",""left"",""left"",""left"",""left"",""left"",""left"",""left"",""left"",""stopped"",""stopped"",""stopped"",""stopped"",""stopped"",""left"",""left"",""left"",""left"",""left"",""left""]","[0,0,0,0,0,0,0,0,0,0,0,0,0,0,0,0,0,0,0,0,1,1,1,1,1,1,1,1,1,1,1,1,1,1,1,1,1,1,1,1,1,0,0,0,0,0,0,0,0,0,0,0,0,0,0,0,0,0,0,0,0,0,0,0,0,0,0,0,0,0,0,0,0,0,1,1,1,1,1,1,1,1,1,1,1,1,1,0,0,0,0,0,1,1,1,1,1,1]",350,"[-1,-41,-50,-50]","[-241.5,-217.5,-206.5,-206.5]","[1,1,1,1]","[0,0,0,0]","[0,0,0,0]","[1.816999912261963,2.4010000228881836,2.7179999351501465,3.0179998874664307]","[""DownClickDemo"",""LeftClickDemo"",""LeftClickDemo""]",0,100,space,0.036000013,1,0,1,0,1,0,80,0,80,0,1,79,fangyanjun715,23,2,2020-07-15_19h23.10.185,AvatarManual,3.2.2,Win32,60,,,,,,,,,,,,,,,,,,,,,,,,,,,,,,,,,,,,,,,,,,,,,,,,,,,,,,,,,,,,,
,,,,,,,,,,,,,,,,,,,,,,,,,,500,400,0,93,3.5,0,"[""stopped"",""stopped"",""stopped"",""stopped"",""stopped"",""stopped"",""stopped"",""stopped"",""stopped"",""stopped"",""stopped"",""stopped"",""stopped"",""stopped"",""stopped"",""stopped"",""stopped"",""stopped"",""stopped"",""right"",""right"",""right"",""right"",""right"",""right"",""right"",""right"",""right"",""right"",""right"",""right"",""right"",""right"",""right"",""right"",""right"",""right"",""right"",""right"",""right"",""right"",""right"",""right"",""right"",""right"",""right"",""right"",""right"",""right"",""right"",""right"",""right"",""right"",""right"",""right"",""right"",""right"",""right"",""right"",""right"",""right"",""right"",""right"",""right"",""right"",""right"",""right"",""right"",""right"",""right"",""right"",""right"",""right"",""right"",""right"",""right"",""right"",""right"",""right"",""right"",""right"",""right"",""right"",""right"",""right"",""right"",""right"",""right"",""right"",""right"",""right"",""right"",""right"",""right"",""right"",""right"",""right"",""right"",""right"",""right"",""right"",""right"",""right"",""right"",""right"",""right"",""right"",""right"",""right"",""right"",""right"",""right"",""right"",""right"",""right"",""right"",""right"",""right"",""right"",""right"",""stopped""]","[0,0,0,0,0,0,0,0,0,0,0,0,0,0,0,0,0,0,0,1,1,1,1,1,1,1,1,1,1,1,1,1,1,1,1,1,1,1,1,1,1,1,1,1,1,1,1,1,1,1,1,1,1,1,1,1,1,1,1,1,1,1,1,1,1,1,1,1,1,1,1,1,1,1,1,1,1,1,1,1,1,1,1,1,1,1,1,1,1,1,1,1,1,1,1,1,1,1,1,1,1,1,1,1,1,1,1,1,1,1,1,1,1,1,1,1,1,1,1,1,0]",317,[33],[-205.5],[1],[0],[0],[1.9010000228881836],"[""RightClickDemo""]",0,100,space,0.361999989,1,0,1,0,1,0,80,0,80,0,1,79,fangyanjun715,23,2,2020-07-15_19h23.10.185,AvatarManual,3.2.2,Win32,60,,,,,,,,,,,,,,,,,,,,,,,,,,,,,,,,,,,,,,,,,,,,,,,,,,,,,,,,,,,,,
,,,,,,,,,,,,,,,,,,,,,,,,,,300,200,0,69,3.5,1,"[""stopped"",""stopped"",""stopped"",""stopped"",""stopped"",""stopped"",""stopped"",""stopped"",""stopped"",""stopped"",""stopped"",""stopped"",""stopped"",""stopped"",""stopped"",""stopped"",""stopped"",""stopped"",""stopped"",""stopped"",""stopped"",""stopped"",""stopped"",""down"",""down"",""down"",""down"",""down"",""down"",""down"",""down"",""down"",""down"",""down"",""down"",""down"",""down"",""down"",""down"",""down"",""down"",""down"",""down"",""down"",""down"",""down"",""stopped"",""stopped"",""stopped"",""stopped"",""stopped"",""stopped"",""stopped"",""stopped"",""stopped"",""stopped"",""stopped"",""right"",""right"",""right"",""right"",""right"",""right"",""right"",""right"",""right"",""right"",""right"",""right"",""right"",""right"",""right"",""right"",""right"",""right"",""right"",""right"",""right"",""right"",""right"",""right"",""right"",""right"",""right"",""right"",""right"",""right"",""right"",""right"",""right"",""right"",""right"",""right"",""right"",""right"",""right"",""right"",""right"",""right"",""right"",""right"",""right"",""right""]","[0,0,0,0,0,0,0,0,0,0,0,0,0,0,0,0,0,0,0,0,0,0,0,1,1,1,1,1,1,1,1,1,1,1,1,1,1,1,1,1,1,1,1,1,1,1,0,0,0,0,0,0,0,0,0,0,0,1,1,1,1,1,1,1,1,1,1,1,1,1,1,1,1,1,1,1,1,1,1,1,1,1,1,1,1,1,1,1,1,1,1,1,1,1,1,1,1,1,1,1,1,1,1]",416,"[8,45]","[-234.5,-180.5]","[1,1]","[0,0]","[0,0]","[1.5499999523162842,2.116999864578247]","[""DownClickDemo"",""RightClickDemo""]",0,100,space,0.037999868,1,0,1,0,1,0,80,0,80,0,1,79,fangyanjun715,23,2,2020-07-15_19h23.10.185,AvatarManual,3.2.2,Win32,60,,,,,,,,,,,,,,,,,,,,,,,,,,,,,,,,,,,,,,,,,,,,,,,,,,,,,,,,,,,,,
,,,,,,,,,,,,,,,,,,,,,,,,,,300,-200,0,82,3.5,1,"[""stopped"",""stopped"",""stopped"",""stopped"",""stopped"",""stopped"",""stopped"",""stopped"",""stopped"",""stopped"",""stopped"",""stopped"",""stopped"",""stopped"",""stopped"",""down"",""down"",""down"",""down"",""down"",""down"",""down"",""down"",""down"",""down"",""down"",""down"",""down"",""down"",""down"",""down"",""down"",""down"",""down"",""down"",""down"",""down"",""down"",""down"",""down"",""down"",""down"",""down"",""down"",""down"",""stopped"",""stopped"",""stopped"",""stopped"",""stopped"",""stopped"",""stopped"",""stopped"",""stopped"",""stopped"",""stopped"",""stopped"",""stopped"",""stopped"",""stopped"",""stopped"",""stopped"",""stopped"",""stopped"",""stopped"",""stopped"",""stopped"",""stopped"",""stopped"",""stopped"",""stopped"",""stopped"",""left"",""left"",""left"",""left"",""left"",""left"",""left"",""left"",""left"",""left"",""left"",""left"",""left"",""left"",""left"",""left"",""left"",""left"",""left"",""left"",""left"",""left"",""left"",""left"",""left"",""left"",""left"",""left"",""left"",""left"",""left"",""left"",""left"",""left"",""left"",""left"",""left"",""left"",""left"",""left"",""left"",""left"",""left"",""left"",""left""]","[0,0,0,0,0,0,0,0,0,0,0,0,0,0,0,1,1,1,1,1,1,1,1,1,1,1,1,1,1,1,1,1,1,1,1,1,1,1,1,1,1,1,1,1,1,0,0,0,0,0,0,0,0,0,0,0,0,0,0,0,0,0,0,0,0,0,0,0,0,0,0,0,1,1,1,1,1,1,1,1,1,1,1,1,1,1,1,1,1,1,1,1,1,1,1,1,1,1,1,1,1,1,1,1,1,1,1,1,1,1,1,1,1,1,1,1,1]",250,"[-6,-91,-46]","[-232.5,-185.5,-197.5]","[1,1,1]","[0,0,0]","[0,0,0]","[1.6499998569488525,2.316999912261963,2.6009998321533203]","[""DownClickDemo"",""LeftClickDemo""]",0,100,space,0.236999989,1,0,1,0,1,0,80,0,80,0,1,79,fangyanjun715,23,2,2020-07-15_19h23.10.185,AvatarManual,3.2.2,Win32,60,,,,,,,,,,,,,,,,,,,,,,,,,,,,,,,,,,,,,,,,,,,,,,,,,,,,,,,,,,,,,
,,,,,,,,,,,,,,,,,,,,,,,,,,400,300,0,64,3.5,0,"[""stopped"",""stopped"",""stopped"",""stopped"",""stopped"",""stopped"",""stopped"",""stopped"",""stopped"",""stopped"",""stopped"",""stopped"",""stopped"",""stopped"",""stopped"",""stopped"",""stopped"",""stopped"",""down"",""down"",""down"",""down"",""down"",""down"",""down"",""down"",""down"",""down"",""down"",""down"",""down"",""down"",""down"",""down"",""down"",""stopped"",""stopped"",""stopped"",""stopped"",""stopped"",""stopped"",""stopped"",""stopped"",""stopped"",""stopped"",""stopped"",""stopped"",""stopped"",""stopped"",""stopped"",""stopped"",""stopped"",""stopped"",""stopped"",""stopped"",""right"",""right"",""right"",""right"",""right"",""right"",""right"",""right"",""right"",""right"",""right"",""right"",""right"",""right"",""right"",""right"",""right"",""right"",""right"",""right"",""right"",""right"",""right"",""right"",""right"",""right"",""right"",""right"",""right"",""right"",""right"",""right"",""right"",""right"",""right"",""right"",""right"",""right"",""right"",""right"",""right"",""right"",""right"",""right"",""right"",""right"",""right"",""right"",""right"",""right"",""right"",""right"",""right"",""right"",""right"",""right"",""right"",""right"",""right"",""right"",""right"",""right"",""right"",""right"",""right"",""right""]","[0,0,0,0,0,0,0,0,0,0,0,0,0,0,0,0,0,0,1,1,1,1,1,1,1,1,1,1,1,1,1,1,1,1,1,0,0,0,0,0,0,0,0,0,0,0,0,0,0,0,0,0,0,0,0,1,1,1,1,1,1,1,1,1,1,1,1,1,1,1,1,1,1,1,1,1,1,1,1,1,1,1,1,1,1,1,1,1,1,1,1,1,1,1,1,1,1,1,1,1,1,1,1,1,1,1,1,1,1,1,1,1,1,1,1,1,1,1,1,1,1]",298,"[19,48]","[-240.5,-195.5]","[1,1]","[0,0]","[0,0]","[1.3519999980926514,1.9690001010894775]","[""DownClickDemo"",""RightClickDemo""]",0,100,space,1.034999847,1,0,1,0,1,0,80,0,80,0,1,79,fangyanjun715,23,2,2020-07-15_19h23.10.185,AvatarManual,3.2.2,Win32,60,,,,,,,,,,,,,,,,,,,,,,,,,,,,,,,,,,,,,,,,,,,,,,,,,,,,,,,,,,,,,
,,,,,,,,,,,,,,,,,,,,,,,,,,400,300,0,126,3.5,0,"[""stopped"",""stopped"",""stopped"",""stopped"",""stopped"",""stopped"",""stopped"",""stopped"",""stopped"",""stopped"",""stopped"",""stopped"",""stopped"",""stopped"",""down"",""down"",""down"",""down"",""down"",""down"",""down"",""down"",""down"",""down"",""down"",""down"",""down"",""down"",""down"",""down"",""down"",""down"",""down"",""down"",""down"",""down"",""down"",""down"",""stopped"",""stopped"",""stopped"",""stopped"",""stopped"",""stopped"",""stopped"",""stopped"",""stopped"",""stopped"",""stopped"",""stopped"",""stopped"",""right"",""right"",""right"",""right"",""right"",""right"",""right"",""right"",""right"",""right"",""right"",""right"",""right"",""right"",""right"",""right"",""right"",""right"",""right"",""right"",""right"",""right"",""right"",""right"",""right"",""right"",""right"",""right"",""right"",""right"",""right"",""right"",""right"",""right"",""right"",""right"",""right"",""right"",""right"",""right"",""right"",""right"",""right"",""right"",""right"",""right"",""right"",""right"",""right"",""right"",""right"",""right"",""right"",""right"",""right"",""right"",""right"",""right"",""right"",""right"",""right"",""right"",""right"",""right"",""right"",""right"",""right"",""right"",""right"",""right""]","[0,0,0,0,0,0,0,0,0,0,0,0,0,0,1,1,1,1,1,1,1,1,1,1,1,1,1,1,1,1,1,1,1,1,1,1,1,1,0,0,0,0,0,0,0,0,0,0,0,0,0,1,1,1,1,1,1,1,1,1,1,1,1,1,1,1,1,1,1,1,1,1,1,1,1,1,1,1,1,1,1,1,1,1,1,1,1,1,1,1,1,1,1,1,1,1,1,1,1,1,1,1,1,1,1,1,1,1,1,1,1,1,1,1,1,1,1,1,1,1,1]",249,"[4,32]","[-238.5,-188.5]","[1,1]","[0,0]","[0,0]","[2.3329999446868896,3.0829999446868896]","[""DownClickDemo"",""RightClickDemo""]",0,100,space,0.585000038,1,0,1,0,1,0,80,0,80,0,1,79,fangyanjun715,23,2,2020-07-15_19h23.10.185,AvatarManual,3.2.2,Win32,60,,,,,,,,,,,,,,,,,,,,,,,,,,,,,,,,,,,,,,,,,,,,,,,,,,,,,,,,,,,,,
,,,,,,,,,,,,,,,,,,,,,,,,,,300,200,0,126,3.5,1,"[""stopped"",""stopped"",""stopped"",""stopped"",""stopped"",""stopped"",""stopped"",""stopped"",""stopped"",""stopped"",""stopped"",""stopped"",""stopped"",""stopped"",""down"",""down"",""down"",""down"",""down"",""down"",""down"",""down"",""down"",""down"",""down"",""down"",""down"",""down"",""down"",""down"",""down"",""down"",""down"",""down"",""down"",""down"",""down"",""down"",""down"",""stopped"",""stopped"",""stopped"",""stopped"",""stopped"",""stopped"",""stopped"",""stopped"",""stopped"",""stopped"",""right"",""right"",""right"",""right"",""right"",""right"",""right"",""right"",""right"",""right"",""right"",""right"",""right"",""right"",""right"",""right"",""right"",""right"",""right"",""right"",""right"",""right"",""right"",""right"",""right"",""right"",""right"",""right"",""right"",""right"",""right"",""right"",""right"",""right"",""right"",""right"",""right"",""right"",""right"",""right"",""right"",""right"",""right"",""right"",""right""]","[0,0,0,0,0,0,0,0,0,0,0,0,0,0,1,1,1,1,1,1,1,1,1,1,1,1,1,1,1,1,1,1,1,1,1,1,1,1,1,0,0,0,0,0,0,0,0,0,0,1,1,1,1,1,1,1,1,1,1,1,1,1,1,1,1,1,1,1,1,1,1,1,1,1,1,1,1,1,1,1,1,1,1,1,1,1,1,1,1,1,1,1,1,1]",233,"[-9,50]","[-244.5,-205.5]","[1,1]","[0,0]","[0,0]","[2.3510000705718994,3.0180001258850098]","[""DownClickDemo"",""RightClickDemo""]",0,100,space,1.623999834,1,0,1,0,1,0,80,0,80,0,1,79,fangyanjun715,23,2,2020-07-15_19h23.10.185,AvatarManual,3.2.2,Win32,60,,,,,,,,,,,,,,,,,,,,,,,,,,,,,,,,,,,,,,,,,,,,,,,,,,,,,,,,,,,,,
,,,,,,,,,,,,,,,,,,,,,,,,,,200,-100,0,124,3.5,1,"[""stopped"",""stopped"",""stopped"",""stopped"",""stopped"",""stopped"",""stopped"",""stopped"",""stopped"",""stopped"",""stopped"",""stopped"",""stopped"",""stopped"",""down"",""down"",""down"",""down"",""down"",""down"",""down"",""down"",""down"",""down"",""down"",""down"",""down"",""down"",""down"",""down"",""down"",""down"",""down"",""down"",""down"",""down"",""down"",""down"",""down"",""stopped"",""stopped"",""stopped"",""stopped"",""stopped"",""stopped"",""stopped"",""stopped"",""stopped"",""stopped"",""stopped"",""left"",""left"",""left"",""left"",""left"",""left"",""left"",""left"",""left"",""left"",""left"",""left"",""left"",""left"",""left"",""left"",""left""]","[0,0,0,0,0,0,0,0,0,0,0,0,0,0,1,1,1,1,1,1,1,1,1,1,1,1,1,1,1,1,1,1,1,1,1,1,1,1,1,0,0,0,0,0,0,0,0,0,0,0,1,1,1,1,1,1,1,1,1,1,1,1,1,1,1,1,1]",233,"[-6,-34]","[-238.5,-200.5]","[1,1]","[0,0]","[0,0]","[2.2840001583099365,2.884999990463257]","[""DownClickDemo"",""LeftClickDemo""]",0,100,space,1.203999996,1,0,1,0,1,0,80,0,80,0,1,79,fangyanjun715,23,2,2020-07-15_19h23.10.185,AvatarManual,3.2.2,Win32,60,,,,,,,,,,,,,,,,,,,,,,,,,,,,,,,,,,,,,,,,,,,,,,,,,,,,,,,,,,,,,
,,,,,,,,,,,,,,,,,,,,,,,,,,200,100,0,71,3.5,1,"[""stopped"",""stopped"",""stopped"",""down"",""down"",""down"",""down"",""down"",""down"",""down"",""down"",""down"",""down"",""down"",""down"",""down"",""down"",""down"",""down"",""down"",""down"",""down"",""down"",""down"",""down"",""down"",""down"",""down"",""down"",""down"",""down"",""stopped"",""stopped"",""stopped"",""stopped"",""stopped"",""stopped"",""stopped"",""stopped"",""stopped"",""stopped"",""stopped"",""stopped"",""stopped"",""stopped"",""stopped"",""stopped"",""stopped"",""stopped"",""stopped"",""stopped"",""stopped"",""stopped"",""stopped"",""stopped"",""stopped"",""stopped"",""right"",""stopped"",""stopped"",""stopped"",""stopped"",""stopped"",""stopped"",""right"",""right"",""right"",""right"",""right"",""right"",""right"",""right"",""right"",""right"",""right"",""right"",""right"",""right"",""right""]","[0,0,0,1,1,1,1,1,1,1,1,1,1,1,1,1,1,1,1,1,1,1,1,1,1,1,1,1,1,1,1,0,0,0,0,0,0,0,0,0,0,0,0,0,0,0,0,0,0,0,0,0,0,0,0,0,0,1,0,0,0,0,0,0,1,1,1,1,1,1,1,1,1,1,1,1,1,1,1]",49,"[-1,70,58]","[-235.5,-199.5,-201.5]","[1,1,1]","[0,0,0]","[0,0,0]","[1.25,1.934000015258789,2.2679998874664307]","[""DownClickDemo"",""RightClickDemo""]",0,100,space,0.035000086,1,0,1,0,1,0,80,0,80,0,1,79,fangyanjun715,23,2,2020-07-15_19h23.10.185,AvatarManual,3.2.2,Win32,60,,,,,,,,,,,,,,,,,,,,,,,,,,,,,,,,,,,,,,,,,,,,,,,,,,,,,,,,,,,,,
,,,,,,,,,,,,,,,,,,,,,,,,,,200,100,0,98,3.5,1,"[""stopped"",""stopped"",""stopped"",""stopped"",""stopped"",""stopped"",""stopped"",""stopped"",""stopped"",""stopped"",""stopped"",""stopped"",""stopped"",""stopped"",""down"",""down"",""down"",""down"",""down"",""down"",""down"",""down"",""down"",""down"",""down"",""down"",""down"",""down"",""down"",""down"",""down"",""down"",""down"",""down"",""down"",""down"",""down"",""down"",""down"",""stopped"",""stopped"",""stopped"",""stopped"",""stopped"",""stopped"",""stopped"",""right"",""right"",""right"",""right"",""right"",""right"",""right"",""right"",""right"",""right"",""right"",""right"",""right"",""right"",""right"",""right"",""right""]","[0,0,0,0,0,0,0,0,0,0,0,0,0,0,1,1,1,1,1,1,1,1,1,1,1,1,1,1,1,1,1,1,1,1,1,1,1,1,1,0,0,0,0,0,0,0,1,1,1,1,1,1,1,1,1,1,1,1,1,1,1,1,1]",233,"[7,51]","[-235.5,-179.5]","[1,1]","[0,0]","[0,0]","[1.8500001430511475,2.621000051498413]","[""DownClickDemo"",""RightClickDemo""]",0,100,space,0.929000139,1,0,1,0,1,0,80,0,80,0,1,79,fangyanjun715,23,2,2020-07-15_19h23.10.185,AvatarManual,3.2.2,Win32,60,,,,,,,,,,,,,,,,,,,,,,,,,,,,,,,,,,,,,,,,,,,,,,,,,,,,,,,,,,,,,
,,,,,,,,,,,,,,,,,,,,,,,,,,300,200,0,66,3.5,0,"[""stopped"",""stopped"",""stopped"",""stopped"",""stopped"",""stopped"",""stopped"",""stopped"",""stopped"",""stopped"",""stopped"",""stopped"",""stopped"",""stopped"",""stopped"",""stopped"",""stopped"",""stopped"",""stopped"",""stopped"",""stopped"",""stopped"",""stopped"",""stopped"",""down"",""down"",""down"",""down"",""down"",""down"",""down"",""down"",""down"",""down"",""down"",""down"",""down"",""down"",""down"",""down"",""down"",""down"",""down"",""down"",""down"",""down"",""down"",""down"",""down"",""down"",""down"",""down"",""stopped"",""stopped"",""stopped"",""stopped"",""stopped"",""stopped"",""stopped"",""stopped"",""stopped"",""stopped"",""stopped"",""stopped"",""stopped"",""stopped"",""stopped"",""stopped"",""stopped"",""stopped"",""stopped"",""stopped"",""stopped"",""stopped"",""stopped"",""stopped"",""stopped"",""stopped"",""stopped"",""stopped"",""stopped"",""stopped"",""stopped"",""stopped"",""stopped"",""stopped"",""stopped"",""stopped"",""stopped"",""stopped"",""stopped"",""stopped"",""right"",""right"",""right"",""right"",""right"",""right"",""right"",""right"",""right"",""right"",""right"",""right"",""right"",""right"",""right"",""right"",""right"",""right"",""right"",""right"",""right"",""right"",""right"",""right"",""right"",""right"",""right"",""right"",""right""]","[0,0,0,0,0,0,0,0,0,0,0,0,0,0,0,0,0,0,0,0,0,0,0,0,1,1,1,1,1,1,1,1,1,1,1,1,1,1,1,1,1,1,1,1,1,1,1,1,1,1,1,1,0,0,0,0,0,0,0,0,0,0,0,0,0,0,0,0,0,0,0,0,0,0,0,0,0,0,0,0,0,0,0,0,0,0,0,0,0,0,0,0,1,1,1,1,1,1,1,1,1,1,1,1,1,1,1,1,1,1,1,1,1,1,1,1,1,1,1,1,1]",400,"[-2,69,64]","[-239.5,-200.5,-196.5]","[1,1,1]","[0,0,0]","[0,0,0]","[1.5180001258850098,2.2179999351501465,2.6510000228881836]","[""DownClickDemo"",""RightClickDemo""]",0,100,space,0.592000008,1,0,1,0,1,0,80,0,80,0,1,79,fangyanjun715,23,2,2020-07-15_19h23.10.185,AvatarManual,3.2.2,Win32,60,,,,,,,,,,,,,,,,,,,,,,,,,,,,,,,,,,,,,,,,,,,,,,,,,,,,,,,,,,,,,
,,,,,,,,,,,,,,,,,,,,,,,,,,300,200,0,112,3.5,1,"[""stopped"",""stopped"",""stopped"",""stopped"",""stopped"",""stopped"",""stopped"",""stopped"",""stopped"",""stopped"",""stopped"",""stopped"",""stopped"",""stopped"",""stopped"",""stopped"",""stopped"",""stopped"",""stopped"",""stopped"",""down"",""down"",""down"",""down"",""down"",""down"",""down"",""down"",""down"",""down"",""down"",""down"",""down"",""down"",""down"",""down"",""down"",""down"",""down"",""down"",""down"",""down"",""stopped"",""stopped"",""stopped"",""stopped"",""stopped"",""stopped"",""stopped"",""stopped"",""stopped"",""stopped"",""stopped"",""stopped"",""stopped"",""stopped"",""stopped"",""stopped"",""right"",""right"",""right"",""right"",""right"",""right"",""right"",""right"",""right"",""right"",""right"",""right"",""right"",""right"",""right"",""right"",""right"",""right"",""right"",""right"",""right"",""right"",""right"",""right"",""right"",""right"",""right"",""right"",""right"",""right"",""right"",""right"",""right"",""right"",""right"",""right"",""right"",""right"",""right"",""right"",""right"",""right"",""right"",""right"",""right"",""right"",""right""]","[0,0,0,0,0,0,0,0,0,0,0,0,0,0,0,0,0,0,0,0,1,1,1,1,1,1,1,1,1,1,1,1,1,1,1,1,1,1,1,1,1,1,0,0,0,0,0,0,0,0,0,0,0,0,0,0,0,0,1,1,1,1,1,1,1,1,1,1,1,1,1,1,1,1,1,1,1,1,1,1,1,1,1,1,1,1,1,1,1,1,1,1,1,1,1,1,1,1,1,1,1,1,1,1,1]",399,"[9,53]","[-232.5,-187.5]","[1,1]","[0,0]","[0,0]","[3.366999864578247,4.000999927520752]","[""DownClickDemo"",""RightClickDemo""]",0,100,space,0.788000107,1,0,1,0,1,0,80,0,80,0,1,79,fangyanjun715,23,2,2020-07-15_19h23.10.185,AvatarManual,3.2.2,Win32,60,,,,,,,,,,,,,,,,,,,,,,,,,,,,,,,,,,,,,,,,,,,,,,,,,,,,,,,,,,,,,
,,,,,,,,,,,,,,,,,,,,,,,,,,500,400,0,76,3.5,0,"[""stopped"",""stopped"",""stopped"",""stopped"",""stopped"",""stopped"",""stopped"",""stopped"",""stopped"",""stopped"",""stopped"",""stopped"",""stopped"",""stopped"",""stopped"",""stopped"",""stopped"",""down"",""down"",""down"",""down"",""down"",""down"",""down"",""down"",""down"",""down"",""down"",""down"",""down"",""down"",""down"",""down"",""down"",""down"",""down"",""stopped"",""stopped"",""stopped"",""stopped"",""stopped"",""stopped"",""stopped"",""stopped"",""down"",""down"",""down"",""down"",""down"",""down"",""down"",""down"",""down"",""down"",""down"",""down"",""stopped"",""stopped"",""stopped"",""stopped"",""stopped"",""stopped"",""stopped"",""stopped"",""stopped"",""stopped"",""stopped"",""stopped"",""stopped"",""stopped"",""stopped"",""stopped"",""stopped"",""stopped"",""stopped"",""stopped"",""stopped"",""stopped"",""stopped"",""stopped"",""stopped"",""stopped"",""stopped"",""stopped"",""stopped"",""stopped"",""stopped"",""stopped"",""right"",""right"",""right"",""right"",""right"",""right"",""right"",""stopped"",""stopped"",""stopped"",""stopped"",""stopped"",""right"",""right"",""right"",""right"",""right"",""right"",""right"",""right"",""right"",""right"",""right"",""right"",""right"",""right"",""right"",""right"",""right"",""right"",""right"",""right"",""right""]","[0,0,0,0,0,0,0,0,0,0,0,0,0,0,0,0,0,1,1,1,1,1,1,1,1,1,1,1,1,1,1,1,1,1,1,1,0,0,0,0,0,0,0,0,1,1,1,1,1,1,1,1,1,1,1,1,0,0,0,0,0,0,0,0,0,0,0,0,0,0,0,0,0,0,0,0,0,0,0,0,0,0,0,0,0,0,0,0,1,1,1,1,1,1,1,0,0,0,0,0,1,1,1,1,1,1,1,1,1,1,1,1,1,1,1,1,1,1,1,1,1]",316,"[10,10,71,72,51]","[-239.5,-239.5,-196.5,-196.5,-206.5]","[1,1,1,1,1]","[0,0,0,0,0]","[0,0,0,0,0]","[1.7330000400543213,2.2829999923706055,2.6559998989105225,3.0820000171661377,3.4019999504089355]","[""DownClickDemo"",""DownClickDemo"",""RightClickDemo""]",0,100,space,0.736000061,1,0,1,0,1,0,80,0,80,0,1,79,fangyanjun715,23,2,2020-07-15_19h23.10.185,AvatarManual,3.2.2,Win32,60,,,,,,,,,,,,,,,,,,,,,,,,,,,,,,,,,,,,,,,,,,,,,,,,,,,,,,,,,,,,,
,,,,,,,,,,,,,,,,,,,,,,,,,,300,-200,0,95,3.5,1,"[""stopped"",""stopped"",""stopped"",""stopped"",""stopped"",""stopped"",""stopped"",""stopped"",""stopped"",""stopped"",""stopped"",""stopped"",""stopped"",""stopped"",""down"",""down"",""down"",""down"",""down"",""down"",""down"",""down"",""down"",""down"",""down"",""down"",""down"",""down"",""down"",""down"",""down"",""down"",""down"",""down"",""down"",""down"",""down"",""down"",""down"",""down"",""down"",""down"",""down"",""down"",""stopped"",""stopped"",""stopped"",""stopped"",""stopped"",""stopped"",""stopped"",""stopped"",""stopped"",""stopped"",""stopped"",""stopped"",""stopped"",""stopped"",""stopped"",""stopped"",""stopped"",""stopped"",""stopped"",""stopped"",""stopped"",""stopped"",""stopped"",""stopped"",""stopped"",""stopped"",""stopped"",""stopped"",""left"",""left"",""left"",""left"",""left"",""left"",""left"",""left"",""left"",""left"",""left"",""left"",""left"",""left"",""left"",""left"",""left"",""left"",""left"",""left"",""left"",""left"",""left"",""left"",""left"",""left"",""left"",""left"",""left"",""left"",""left"",""left"",""left"",""left"",""left"",""left"",""left"",""left"",""left"",""left"",""left"",""left"",""left"",""left"",""left""]","[0,0,0,0,0,0,0,0,0,0,0,0,0,0,1,1,1,1,1,1,1,1,1,1,1,1,1,1,1,1,1,1,1,1,1,1,1,1,1,1,1,1,1,1,0,0,0,0,0,0,0,0,0,0,0,0,0,0,0,0,0,0,0,0,0,0,0,0,0,0,0,0,1,1,1,1,1,1,1,1,1,1,1,1,1,1,1,1,1,1,1,1,1,1,1,1,1,1,1,1,1,1,1,1,1,1,1,1,1,1,1,1,1,1,1,1,1]",250,"[-2,-44,-53]","[-251.5,-215.5,-201.5]","[1,1,1]","[0,0,0]","[0,0,0]","[1.9179999828338623,2.618000030517578,3.002000093460083]","[""DownClickDemo"",""LeftClickDemo""]",0,100,space,0.505000114,1,0,1,0,1,0,80,0,80,0,1,79,fangyanjun715,23,2,2020-07-15_19h23.10.185,AvatarManual,3.2.2,Win32,60,,,,,,,,,,,,,,,,,,,,,,,,,,,,,,,,,,,,,,,,,,,,,,,,,,,,,,,,,,,,,
,,,,,,,,,,,,,,,,,,,,,,,,,,400,-300,0,88,3.5,0,"[""stopped"",""stopped"",""stopped"",""stopped"",""stopped"",""stopped"",""stopped"",""stopped"",""stopped"",""stopped"",""stopped"",""stopped"",""stopped"",""stopped"",""stopped"",""down"",""down"",""down"",""down"",""down"",""down"",""down"",""down"",""down"",""down"",""down"",""down"",""down"",""down"",""down"",""down"",""down"",""down"",""down"",""down"",""down"",""down"",""down"",""down"",""down"",""down"",""down"",""stopped"",""stopped"",""stopped"",""stopped"",""stopped"",""stopped"",""stopped"",""stopped"",""stopped"",""stopped"",""stopped"",""stopped"",""stopped"",""stopped"",""stopped"",""stopped"",""left"",""left"",""left"",""left"",""left"",""left"",""stopped"",""stopped"",""stopped"",""stopped"",""stopped"",""stopped"",""stopped"",""stopped"",""stopped"",""stopped"",""stopped"",""stopped"",""left"",""left"",""left"",""left"",""left"",""left"",""left"",""left"",""left"",""left"",""left"",""left"",""left"",""left"",""left"",""left"",""left"",""left"",""left"",""left"",""left"",""left"",""left"",""left"",""left"",""left"",""left"",""left"",""left"",""left"",""left"",""left"",""left"",""left"",""left"",""left"",""left"",""left"",""left"",""left"",""left"",""left"",""left"",""left"",""left""]","[0,0,0,0,0,0,0,0,0,0,0,0,0,0,0,1,1,1,1,1,1,1,1,1,1,1,1,1,1,1,1,1,1,1,1,1,1,1,1,1,1,1,0,0,0,0,0,0,0,0,0,0,0,0,0,0,0,0,1,1,1,1,1,1,0,0,0,0,0,0,0,0,0,0,0,0,1,1,1,1,1,1,1,1,1,1,1,1,1,1,1,1,1,1,1,1,1,1,1,1,1,1,1,1,1,1,1,1,1,1,1,1,1,1,1,1,1,1,1,1,1]",266,"[0,-35,-35]","[-250.5,-211.5,-211.5]","[1,1,1]","[0,0,0]","[0,0,0]","[2.4509999752044678,3.2350001335144043,3.5350000858306885]","[""DownClickDemo"",""LeftClickDemo"",""LeftClickDemo""]",0,100,space,0.267999887,1,0,1,0,1,0,80,0,80,0,1,79,fangyanjun715,23,2,2020-07-15_19h23.10.185,AvatarManual,3.2.2,Win32,60,,,,,,,,,,,,,,,,,,,,,,,,,,,,,,,,,,,,,,,,,,,,,,,,,,,,,,,,,,,,,
,,,,,,,,,,,,,,,,,,,,,,,,,,400,300,0,84,3.5,0,"[""stopped"",""stopped"",""stopped"",""stopped"",""stopped"",""stopped"",""stopped"",""stopped"",""stopped"",""stopped"",""stopped"",""stopped"",""stopped"",""stopped"",""stopped"",""stopped"",""stopped"",""stopped"",""stopped"",""down"",""down"",""down"",""down"",""down"",""down"",""down"",""down"",""down"",""down"",""down"",""down"",""down"",""down"",""down"",""down"",""down"",""down"",""down"",""down"",""down"",""down"",""down"",""down"",""down"",""down"",""down"",""down"",""down"",""stopped"",""stopped"",""stopped"",""stopped"",""stopped"",""stopped"",""stopped"",""stopped"",""stopped"",""stopped"",""stopped"",""stopped"",""stopped"",""stopped"",""stopped"",""stopped"",""stopped"",""stopped"",""stopped"",""stopped"",""stopped"",""stopped"",""stopped"",""stopped"",""stopped"",""stopped"",""stopped"",""right"",""right"",""right"",""right"",""right"",""right"",""right"",""right"",""right"",""right"",""right"",""right"",""right"",""right"",""right"",""right"",""right"",""right"",""right"",""right"",""right"",""right"",""right"",""right"",""right"",""right"",""right"",""right"",""right"",""right"",""right"",""right"",""right"",""right"",""right"",""right"",""right"",""right"",""right"",""right"",""right"",""right"",""right"",""right"",""right"",""right""]","[0,0,0,0,0,0,0,0,0,0,0,0,0,0,0,0,0,0,0,1,1,1,1,1,1,1,1,1,1,1,1,1,1,1,1,1,1,1,1,1,1,1,1,1,1,1,1,1,0,0,0,0,0,0,0,0,0,0,0,0,0,0,0,0,0,0,0,0,0,0,0,0,0,0,0,1,1,1,1,1,1,1,1,1,1,1,1,1,1,1,1,1,1,1,1,1,1,1,1,1,1,1,1,1,1,1,1,1,1,1,1,1,1,1,1,1,1,1,1,1,1]",416,"[7,87,51]","[-234.5,-167.5,-185.5]","[1,1,1]","[0,0,0]","[0,0,0]","[1.8339998722076416,2.5850000381469727,2.818000078201294]","[""DownClickDemo"",""RightClickDemo""]",0,100,space,0.274999857,1,0,1,0,1,0,80,0,80,0,1,79,fangyanjun715,23,2,2020-07-15_19h23.10.185,AvatarManual,3.2.2,Win32,60,,,,,,,,,,,,,,,,,,,,,,,,,,,,,,,,,,,,,,,,,,,,,,,,,,,,,,,,,,,,,
,,,,,,,,,,,,,,,,,,,,,,,,,,300,200,0,70,3.5,1,"[""stopped"",""stopped"",""stopped"",""stopped"",""stopped"",""stopped"",""stopped"",""stopped"",""stopped"",""stopped"",""stopped"",""stopped"",""stopped"",""stopped"",""stopped"",""stopped"",""stopped"",""stopped"",""stopped"",""stopped"",""stopped"",""stopped"",""down"",""down"",""down"",""down"",""down"",""down"",""down"",""down"",""down"",""down"",""down"",""down"",""down"",""down"",""down"",""down"",""down"",""down"",""down"",""down"",""down"",""down"",""down"",""down"",""down"",""down"",""down"",""down"",""stopped"",""stopped"",""stopped"",""stopped"",""stopped"",""stopped"",""stopped"",""stopped"",""stopped"",""stopped"",""stopped"",""stopped"",""stopped"",""stopped"",""right"",""right"",""right"",""right"",""right"",""right"",""right"",""right"",""right"",""right"",""right"",""right"",""right"",""right"",""right"",""right"",""right"",""right"",""right"",""right"",""right"",""right"",""right"",""right"",""right"",""right"",""right"",""right"",""right"",""right"",""right"",""right"",""right"",""right"",""right"",""right"",""right"",""right"",""right"",""right"",""right"",""right"",""right"",""right"",""right""]","[0,0,0,0,0,0,0,0,0,0,0,0,0,0,0,0,0,0,0,0,0,0,1,1,1,1,1,1,1,1,1,1,1,1,1,1,1,1,1,1,1,1,1,1,1,1,1,1,1,1,0,0,0,0,0,0,0,0,0,0,0,0,0,0,1,1,1,1,1,1,1,1,1,1,1,1,1,1,1,1,1,1,1,1,1,1,1,1,1,1,1,1,1,1,1,1,1,1,1,1,1,1,1,1,1,1,1,1,1]",366,"[-4,27]","[-241.5,-183.5]","[1,1]","[0,0]","[0,0]","[1.5169999599456787,2.2679998874664307]","[""DownClickDemo"",""RightClickDemo""]",0,100,space,0.254999876,1,0,1,0,1,0,80,0,80,0,1,79,fangyanjun715,23,2,2020-07-15_19h23.10.185,AvatarManual,3.2.2,Win32,60,,,,,,,,,,,,,,,,,,,,,,,,,,,,,,,,,,,,,,,,,,,,,,,,,,,,,,,,,,,,,
,,,,,,,,,,,,,,,,,,,,,,,,,,200,-100,0,143,3.5,1,"[""stopped"",""stopped"",""stopped"",""stopped"",""stopped"",""stopped"",""stopped"",""stopped"",""stopped"",""stopped"",""stopped"",""stopped"",""stopped"",""stopped"",""stopped"",""stopped"",""down"",""down"",""down"",""down"",""down"",""down"",""down"",""down"",""down"",""down"",""down"",""down"",""down"",""down"",""down"",""down"",""down"",""down"",""down"",""down"",""down"",""down"",""down"",""down"",""down"",""down"",""stopped"",""stopped"",""stopped"",""stopped"",""stopped"",""stopped"",""stopped"",""stopped"",""stopped"",""stopped"",""stopped"",""left"",""left"",""left"",""left"",""left"",""left"",""left"",""left"",""left"",""left"",""left"",""left"",""left"",""left"",""left"",""left""]","[0,0,0,0,0,0,0,0,0,0,0,0,0,0,0,0,1,1,1,1,1,1,1,1,1,1,1,1,1,1,1,1,1,1,1,1,1,1,1,1,1,1,0,0,0,0,0,0,0,0,0,0,0,1,1,1,1,1,1,1,1,1,1,1,1,1,1,1,1]",286,"[6,-8,2,-44]","[-241.5,-233.5,-247.5,-209.5]","[1,1,1,1]","[0,0,0,0]","[0,0,0,0]","[2.069000005722046,4.724999904632568,8.556999921798706,9.371000051498413]","[""DownClickDemo"",""DownClickDemo"",""DownClickDemo"",""LeftClickDemo""]",0,100,space,0.690999985,1,0,1,0,1,0,80,0,80,0,1,79,fangyanjun715,23,2,2020-07-15_19h23.10.185,AvatarManual,3.2.2,Win32,60,,,,,,,,,,,,,,,,,,,,,,,,,,,,,,,,,,,,,,,,,,,,,,,,,,,,,,,,,,,,,
,,,,,,,,,,,,,,,,,,,,,,,,,,500,400,0,102,3.5,0,"[""stopped"",""stopped"",""stopped"",""stopped"",""stopped"",""stopped"",""stopped"",""stopped"",""stopped"",""stopped"",""stopped"",""stopped"",""stopped"",""stopped"",""stopped"",""down"",""down"",""down"",""down"",""down"",""down"",""down"",""down"",""down"",""down"",""down"",""down"",""down"",""down"",""down"",""down"",""down"",""down"",""down"",""down"",""down"",""down"",""down"",""down"",""down"",""down"",""down"",""stopped"",""stopped"",""stopped"",""stopped"",""stopped"",""stopped"",""stopped"",""stopped"",""stopped"",""stopped"",""stopped"",""stopped"",""stopped"",""right"",""right"",""right"",""right"",""right"",""right"",""right"",""right"",""right"",""right"",""right"",""right"",""right"",""right"",""right"",""right"",""right"",""right"",""right"",""right"",""right"",""right"",""right"",""right"",""right"",""right"",""right"",""right"",""right"",""right"",""right"",""right"",""right"",""right"",""right"",""right"",""right"",""right"",""right"",""right"",""right"",""right"",""right"",""right"",""right"",""right"",""right"",""right"",""right"",""right"",""right"",""right"",""right"",""right"",""right"",""right"",""right"",""right"",""right"",""right"",""right"",""right"",""right"",""right"",""right"",""right""]","[0,0,0,0,0,0,0,0,0,0,0,0,0,0,0,1,1,1,1,1,1,1,1,1,1,1,1,1,1,1,1,1,1,1,1,1,1,1,1,1,1,1,0,0,0,0,0,0,0,0,0,0,0,0,0,1,1,1,1,1,1,1,1,1,1,1,1,1,1,1,1,1,1,1,1,1,1,1,1,1,1,1,1,1,1,1,1,1,1,1,1,1,1,1,1,1,1,1,1,1,1,1,1,1,1,1,1,1,1,1,1,1,1,1,1,1,1,1,1,1,1]",267,"[11,58]","[-238.5,-186.5]","[1,1]","[0,0]","[0,0]","[1.9839999675750732,2.6510000228881836]","[""DownClickDemo"",""RightClickDemo""]",0,100,space,0.592999935,1,0,1,0,1,0,80,0,80,0,1,79,fangyanjun715,23,2,2020-07-15_19h23.10.185,AvatarManual,3.2.2,Win32,60,,,,,,,,,,,,,,,,,,,,,,,,,,,,,,,,,,,,,,,,,,,,,,,,,,,,,,,,,,,,,
,,,,,,,,,,,,,,,,,,,,,,,,,,200,100,0,145,3.5,1,"[""stopped"",""stopped"",""stopped"",""stopped"",""stopped"",""stopped"",""stopped"",""stopped"",""stopped"",""stopped"",""down"",""down"",""down"",""down"",""down"",""down"",""down"",""down"",""down"",""down"",""down"",""down"",""down"",""down"",""down"",""down"",""down"",""down"",""down"",""down"",""down"",""down"",""down"",""stopped"",""stopped"",""stopped"",""stopped"",""stopped"",""stopped"",""stopped"",""stopped"",""stopped"",""stopped"",""right"",""right"",""right"",""right"",""right"",""right"",""right"",""right"",""right"",""right"",""right"",""right"",""right"",""right"",""right"",""right"",""right""]","[0,0,0,0,0,0,0,0,0,0,1,1,1,1,1,1,1,1,1,1,1,1,1,1,1,1,1,1,1,1,1,1,1,0,0,0,0,0,0,0,0,0,0,1,1,1,1,1,1,1,1,1,1,1,1,1,1,1,1,1]",281,"[-1,32]","[-239.5,-187.5]","[1,1]","[0,0]","[0,0]","[2.934000015258789,3.618000030517578]","[""DownClickDemo"",""RightClickDemo""]",0,100,space,34.09700012,1,0,1,0,1,0,80,0,80,0,1,79,fangyanjun715,23,2,2020-07-15_19h23.10.185,AvatarManual,3.2.2,Win32,60,,,,,,,,,,,,,,,,,,,,,,,,,,,,,,,,,,,,,,,,,,,,,,,,,,,,,,,,,,,,,
,,,,,,,,,,,,,,,,,,,,,,,,,,300,-200,0,118,3.5,1,"[""stopped"",""stopped"",""stopped"",""stopped"",""stopped"",""stopped"",""stopped"",""stopped"",""stopped"",""stopped"",""stopped"",""stopped"",""stopped"",""stopped"",""stopped"",""down"",""down"",""down"",""down"",""down"",""down"",""down"",""down"",""down"",""down"",""down"",""down"",""down"",""down"",""down"",""down"",""down"",""down"",""down"",""down"",""down"",""down"",""down"",""down"",""stopped"",""stopped"",""stopped"",""stopped"",""stopped"",""stopped"",""stopped"",""stopped"",""stopped"",""stopped"",""stopped"",""stopped"",""stopped"",""stopped"",""stopped"",""stopped"",""stopped"",""stopped"",""stopped"",""stopped"",""stopped"",""stopped"",""stopped"",""stopped"",""stopped"",""left"",""left"",""left"",""left"",""left"",""left"",""left"",""left"",""left"",""left"",""left"",""left"",""left"",""left"",""left"",""left"",""left"",""left"",""left"",""left"",""left"",""left"",""left"",""left"",""left"",""left"",""left"",""left"",""left"",""left"",""left"",""left"",""left"",""left"",""left"",""left"",""left"",""left"",""left"",""left"",""left"",""left"",""left"",""left"",""left"",""left""]","[0,0,0,0,0,0,0,0,0,0,0,0,0,0,0,1,1,1,1,1,1,1,1,1,1,1,1,1,1,1,1,1,1,1,1,1,1,1,1,0,0,0,0,0,0,0,0,0,0,0,0,0,0,0,0,0,0,0,0,0,0,0,0,0,1,1,1,1,1,1,1,1,1,1,1,1,1,1,1,1,1,1,1,1,1,1,1,1,1,1,1,1,1,1,1,1,1,1,1,1,1,1,1,1,1,1,1,1,1,1]",303,"[-2,-89,-52]","[-232.5,-173.5,-184.5]","[1,1,1]","[0,0,0]","[0,0,0]","[2.679999828338623,3.3989999294281006,3.677999973297119]","[""DownClickDemo"",""LeftClickDemo""]",0,100,space,0.328000069,1,0,1,0,1,0,80,0,80,0,1,79,fangyanjun715,23,2,2020-07-15_19h23.10.185,AvatarManual,3.2.2,Win32,60,,,,,,,,,,,,,,,,,,,,,,,,,,,,,,,,,,,,,,,,,,,,,,,,,,,,,,,,,,,,,
,,,,,,,,,,,,,,,,,,,,,,,,,,300,200,0,105,3.5,1,"[""stopped"",""stopped"",""stopped"",""stopped"",""stopped"",""stopped"",""stopped"",""stopped"",""stopped"",""stopped"",""stopped"",""stopped"",""down"",""stopped"",""stopped"",""stopped"",""stopped"",""stopped"",""stopped"",""stopped"",""stopped"",""stopped"",""stopped"",""down"",""down"",""down"",""down"",""down"",""down"",""down"",""down"",""down"",""down"",""down"",""down"",""down"",""down"",""down"",""down"",""down"",""down"",""down"",""down"",""down"",""down"",""down"",""down"",""down"",""down"",""down"",""down"",""down"",""stopped"",""stopped"",""stopped"",""stopped"",""stopped"",""stopped"",""stopped"",""stopped"",""stopped"",""stopped"",""stopped"",""stopped"",""stopped"",""stopped"",""stopped"",""stopped"",""stopped"",""stopped"",""stopped"",""stopped"",""stopped"",""stopped"",""stopped"",""stopped"",""right"",""right"",""right"",""right"",""right"",""right"",""right"",""right"",""right"",""right"",""right"",""right"",""right"",""right"",""right"",""right"",""right"",""right"",""right"",""right"",""right"",""right"",""right"",""right"",""right"",""right"",""right"",""right"",""right"",""right"",""right"",""right"",""right"",""right"",""right"",""right"",""right"",""right"",""right"",""right"",""right"",""right"",""right"",""right"",""right""]","[0,0,0,0,0,0,0,0,0,0,0,0,1,0,0,0,0,0,0,0,0,0,0,1,1,1,1,1,1,1,1,1,1,1,1,1,1,1,1,1,1,1,1,1,1,1,1,1,1,1,1,1,0,0,0,0,0,0,0,0,0,0,0,0,0,0,0,0,0,0,0,0,0,0,0,0,1,1,1,1,1,1,1,1,1,1,1,1,1,1,1,1,1,1,1,1,1,1,1,1,1,1,1,1,1,1,1,1,1,1,1,1,1,1,1,1,1,1,1,1,1]",767,"[4,-9,46,43]","[-237.5,-230.5,-172.5,-196.5]","[1,1,1,1]","[0,0,0,0]","[0,0,0,0]","[4.351999998092651,4.934999942779541,5.756999969482422,6.235000133514404]","[""DownClickDemo"",""DownClickDemo"",""RightClickDemo""]",0,100,space,0.661000013,1,0,1,0,1,0,80,0,80,0,1,79,fangyanjun715,23,2,2020-07-15_19h23.10.185,AvatarManual,3.2.2,Win32,60,,,,,,,,,,,,,,,,,,,,,,,,,,,,,,,,,,,,,,,,,,,,,,,,,,,,,,,,,,,,,
,,,,,,,,,,,,,,,,,,,,,,,,,,300,200,0,72,3.5,1,"[""stopped"",""stopped"",""stopped"",""stopped"",""stopped"",""stopped"",""stopped"",""stopped"",""stopped"",""stopped"",""stopped"",""stopped"",""stopped"",""stopped"",""stopped"",""stopped"",""stopped"",""stopped"",""stopped"",""stopped"",""stopped"",""stopped"",""stopped"",""stopped"",""stopped"",""stopped"",""stopped"",""stopped"",""stopped"",""stopped"",""down"",""down"",""down"",""down"",""down"",""down"",""down"",""down"",""down"",""down"",""down"",""down"",""down"",""down"",""down"",""down"",""down"",""down"",""down"",""down"",""down"",""down"",""down"",""down"",""down"",""down"",""down"",""down"",""stopped"",""stopped"",""stopped"",""stopped"",""stopped"",""stopped"",""stopped"",""stopped"",""stopped"",""stopped"",""stopped"",""stopped"",""stopped"",""stopped"",""stopped"",""right"",""right"",""right"",""right"",""right"",""right"",""right"",""right"",""right"",""right"",""right"",""right"",""right"",""right"",""right"",""right"",""right"",""right"",""right"",""right"",""right"",""right"",""right"",""right"",""right"",""right"",""right"",""right"",""right"",""right"",""right"",""right"",""right"",""right"",""right"",""right"",""right"",""right"",""right"",""right"",""right"",""right"",""right"",""right"",""right""]","[0,0,0,0,0,0,0,0,0,0,0,0,0,0,0,0,0,0,0,0,0,0,0,0,0,0,0,0,0,0,1,1,1,1,1,1,1,1,1,1,1,1,1,1,1,1,1,1,1,1,1,1,1,1,1,1,1,1,0,0,0,0,0,0,0,0,0,0,0,0,0,0,0,1,1,1,1,1,1,1,1,1,1,1,1,1,1,1,1,1,1,1,1,1,1,1,1,1,1,1,1,1,1,1,1,1,1,1,1,1,1,1,1,1,1,1,1,1]",499,"[-7,45]","[-243.5,-182.5]","[1,1]","[0,0]","[0,0]","[1.682999849319458,2.434999942779541]","[""DownClickDemo"",""RightClickDemo""]",0,100,space,0.32799983,1,0,1,0,1,0,80,0,80,0,1,79,fangyanjun715,23,2,2020-07-15_19h23.10.185,AvatarManual,3.2.2,Win32,60,,,,,,,,,,,,,,,,,,,,,,,,,,,,,,,,,,,,,,,,,,,,,,,,,,,,,,,,,,,,,
,,,,,,,,,,,,,,,,,,,,,,,,,,400,-300,0,126,3.5,0,"[""stopped"",""stopped"",""stopped"",""stopped"",""stopped"",""stopped"",""stopped"",""stopped"",""stopped"",""stopped"",""stopped"",""stopped"",""stopped"",""stopped"",""stopped"",""down"",""down"",""down"",""down"",""down"",""down"",""down"",""down"",""down"",""down"",""down"",""down"",""down"",""down"",""down"",""down"",""down"",""down"",""down"",""down"",""down"",""down"",""down"",""down"",""down"",""down"",""down"",""down"",""down"",""down"",""down"",""down"",""stopped"",""stopped"",""stopped"",""stopped"",""stopped"",""stopped"",""stopped"",""stopped"",""stopped"",""stopped"",""stopped"",""stopped"",""stopped"",""stopped"",""left"",""left"",""left"",""left"",""left"",""left"",""left"",""left"",""left"",""left"",""left"",""left"",""left"",""left"",""left"",""left"",""left"",""left"",""left"",""left"",""left"",""left"",""left"",""left"",""left"",""left"",""left"",""left"",""left"",""left"",""left"",""left"",""left"",""left"",""left"",""left"",""left"",""left"",""left"",""left"",""left"",""left"",""left"",""left"",""left"",""left"",""left"",""left"",""left"",""left"",""left"",""left"",""left"",""left"",""left"",""left"",""left"",""left"",""left"",""left""]","[0,0,0,0,0,0,0,0,0,0,0,0,0,0,0,1,1,1,1,1,1,1,1,1,1,1,1,1,1,1,1,1,1,1,1,1,1,1,1,1,1,1,1,1,1,1,1,0,0,0,0,0,0,0,0,0,0,0,0,0,0,1,1,1,1,1,1,1,1,1,1,1,1,1,1,1,1,1,1,1,1,1,1,1,1,1,1,1,1,1,1,1,1,1,1,1,1,1,1,1,1,1,1,1,1,1,1,1,1,1,1,1,1,1,1,1,1,1,1,1,1]",249,"[2,-57]","[-236.5,-187.5]","[1,1]","[0,0]","[0,0]","[2.5329999923706055,3.3000001907348633]","[""DownClickDemo"",""LeftClickDemo""]",0,100,space,0.427000046,1,0,1,0,1,0,80,0,80,0,1,79,fangyanjun715,23,2,2020-07-15_19h23.10.185,AvatarManual,3.2.2,Win32,60,,,,,,,,,,,,,,,,,,,,,,,,,,,,,,,,,,,,,,,,,,,,,,,,,,,,,,,,,,,,,
,,,,,,,,,,,,,,,,,,,,,,,,,,400,300,0,124,3.5,0,"[""stopped"",""stopped"",""stopped"",""stopped"",""stopped"",""stopped"",""stopped"",""stopped"",""stopped"",""stopped"",""stopped"",""stopped"",""stopped"",""stopped"",""down"",""down"",""down"",""down"",""down"",""down"",""down"",""down"",""down"",""down"",""down"",""down"",""down"",""down"",""down"",""down"",""down"",""down"",""down"",""down"",""down"",""down"",""down"",""down"",""down"",""down"",""down"",""down"",""down"",""down"",""stopped"",""stopped"",""stopped"",""stopped"",""stopped"",""stopped"",""stopped"",""stopped"",""stopped"",""stopped"",""stopped"",""stopped"",""stopped"",""stopped"",""stopped"",""stopped"",""stopped"",""stopped"",""stopped"",""stopped"",""stopped"",""stopped"",""stopped"",""stopped"",""stopped"",""stopped"",""stopped"",""stopped"",""stopped"",""stopped"",""stopped"",""stopped"",""right"",""right"",""right"",""right"",""right"",""right"",""right"",""right"",""right"",""right"",""right"",""right"",""right"",""right"",""right"",""right"",""right"",""right"",""right"",""right"",""right"",""right"",""right"",""right"",""right"",""right"",""right"",""right"",""right"",""right"",""right"",""right"",""right"",""right"",""right"",""right"",""right"",""right"",""right"",""right"",""right"",""right"",""right"",""right"",""right""]","[0,0,0,0,0,0,0,0,0,0,0,0,0,0,1,1,1,1,1,1,1,1,1,1,1,1,1,1,1,1,1,1,1,1,1,1,1,1,1,1,1,1,1,1,0,0,0,0,0,0,0,0,0,0,0,0,0,0,0,0,0,0,0,0,0,0,0,0,0,0,0,0,0,0,0,0,1,1,1,1,1,1,1,1,1,1,1,1,1,1,1,1,1,1,1,1,1,1,1,1,1,1,1,1,1,1,1,1,1,1,1,1,1,1,1,1,1,1,1,1,1]",233,"[2,57,52]","[-236.5,-168.5,-180.5]","[1,1,1]","[0,0,0]","[0,0,0]","[3.317000150680542,4.118000030517578,4.501000165939331]","[""DownClickDemo"",""RightClickDemo""]",0,100,space,0.601999998,1,0,1,0,1,0,80,0,80,0,1,79,fangyanjun715,23,2,2020-07-15_19h23.10.185,AvatarManual,3.2.2,Win32,60,,,,,,,,,,,,,,,,,,,,,,,,,,,,,,,,,,,,,,,,,,,,,,,,,,,,,,,,,,,,,
,,,,,,,,,,,,,,,,,,,,,,,,,,200,100,0,62,3.5,1,"[""stopped"",""stopped"",""stopped"",""stopped"",""stopped"",""stopped"",""stopped"",""stopped"",""stopped"",""stopped"",""stopped"",""stopped"",""stopped"",""stopped"",""stopped"",""stopped"",""stopped"",""stopped"",""stopped"",""down"",""down"",""down"",""down"",""down"",""down"",""down"",""down"",""down"",""down"",""down"",""down"",""down"",""down"",""down"",""down"",""down"",""down"",""down"",""down"",""down"",""down"",""down"",""down"",""down"",""down"",""stopped"",""stopped"",""stopped"",""stopped"",""stopped"",""stopped"",""stopped"",""stopped"",""stopped"",""stopped"",""stopped"",""right"",""right"",""right"",""right"",""right"",""right"",""right"",""right"",""right"",""right"",""right"",""right"",""right"",""right"",""right"",""right""]","[0,0,0,0,0,0,0,0,0,0,0,0,0,0,0,0,0,0,0,1,1,1,1,1,1,1,1,1,1,1,1,1,1,1,1,1,1,1,1,1,1,1,1,1,1,0,0,0,0,0,0,0,0,0,0,0,1,1,1,1,1,1,1,1,1,1,1,1,1,1,1,1]",316,"[-2,35]","[-229.5,-185.5]","[1,1]","[0,0]","[0,0]","[2.4170000553131104,3.0340001583099365]","[""DownClickDemo"",""RightClickDemo""]",0,100,space,0.536000013,1,0,1,0,1,0,80,0,80,0,1,79,fangyanjun715,23,2,2020-07-15_19h23.10.185,AvatarManual,3.2.2,Win32,60,,,,,,,,,,,,,,,,,,,,,,,,,,,,,,,,,,,,,,,,,,,,,,,,,,,,,,,,,,,,,
,,,,,,,,,,,,,,,,,,,,,,,,,,200,-100,0,82,3.5,1,"[""stopped"",""stopped"",""stopped"",""stopped"",""stopped"",""stopped"",""stopped"",""stopped"",""stopped"",""stopped"",""stopped"",""stopped"",""stopped"",""stopped"",""stopped"",""stopped"",""stopped"",""stopped"",""stopped"",""stopped"",""down"",""down"",""down"",""down"",""down"",""down"",""down"",""down"",""down"",""down"",""down"",""down"",""down"",""down"",""down"",""down"",""down"",""down"",""down"",""down"",""stopped"",""stopped"",""stopped"",""stopped"",""stopped"",""stopped"",""stopped"",""stopped"",""stopped"",""stopped"",""stopped"",""stopped"",""stopped"",""stopped"",""left"",""left"",""left"",""left"",""left"",""left"",""left"",""stopped"",""stopped"",""stopped"",""stopped"",""left"",""left"",""left"",""left"",""left"",""left"",""left"",""left"",""left"",""left"",""left"",""left""]","[0,0,0,0,0,0,0,0,0,0,0,0,0,0,0,0,0,0,0,0,1,1,1,1,1,1,1,1,1,1,1,1,1,1,1,1,1,1,1,1,0,0,0,0,0,0,0,0,0,0,0,0,0,0,1,1,1,1,1,1,1,0,0,0,0,1,1,1,1,1,1,1,1,1,1,1,1]",333,"[-3,-37,-43]","[-237.5,-207.5,-208.5]","[1,1,1]","[0,0,0]","[0,0,0]","[2.0169999599456787,2.5870001316070557,2.884000062942505]","[""DownClickDemo"",""LeftClickDemo"",""LeftClickDemo""]",0,100,space,0.123000145,1,0,1,0,1,0,80,0,80,0,1,79,fangyanjun715,23,2,2020-07-15_19h23.10.185,AvatarManual,3.2.2,Win32,60,,,,,,,,,,,,,,,,,,,,,,,,,,,,,,,,,,,,,,,,,,,,,,,,,,,,,,,,,,,,,
,,,,,,,,,,,,,,,,,,,,,,,,,,200,-100,0,82,3.5,1,"[""stopped"",""stopped"",""stopped"",""stopped"",""stopped"",""stopped"",""stopped"",""stopped"",""stopped"",""stopped"",""stopped"",""stopped"",""stopped"",""stopped"",""stopped"",""stopped"",""stopped"",""stopped"",""stopped"",""down"",""down"",""down"",""down"",""down"",""down"",""down"",""down"",""down"",""down"",""down"",""down"",""down"",""down"",""down"",""down"",""down"",""down"",""down"",""down"",""down"",""down"",""down"",""down"",""down"",""down"",""down"",""down"",""stopped"",""stopped"",""stopped"",""stopped"",""stopped"",""stopped"",""stopped"",""stopped"",""stopped"",""stopped"",""stopped"",""left"",""left"",""left"",""left"",""left"",""left"",""left"",""left"",""left"",""left"",""left"",""left"",""left"",""left"",""left"",""left""]","[0,0,0,0,0,0,0,0,0,0,0,0,0,0,0,0,0,0,0,1,1,1,1,1,1,1,1,1,1,1,1,1,1,1,1,1,1,1,1,1,1,1,1,1,1,1,1,0,0,0,0,0,0,0,0,0,0,0,1,1,1,1,1,1,1,1,1,1,1,1,1,1,1,1]",422,"[-3,-31]","[-240.5,-198.5]","[1,1]","[0,0]","[0,0]","[1.99399995803833,2.746000051498413]","[""DownClickDemo"",""LeftClickDemo""]",0,100,space,0.252000093,1,0,1,0,1,0,80,0,80,0,1,79,fangyanjun715,23,2,2020-07-15_19h23.10.185,AvatarManual,3.2.2,Win32,60,,,,,,,,,,,,,,,,,,,,,,,,,,,,,,,,,,,,,,,,,,,,,,,,,,,,,,,,,,,,,
,,,,,,,,,,,,,,,,,,,,,,,,,,500,-400,0,66,3.5,0,"[""stopped"",""stopped"",""stopped"",""stopped"",""stopped"",""stopped"",""stopped"",""stopped"",""stopped"",""stopped"",""stopped"",""stopped"",""left"",""left"",""left"",""left"",""left"",""left"",""left"",""left"",""left"",""left"",""left"",""left"",""left"",""stopped"",""stopped"",""stopped"",""stopped"",""stopped"",""stopped"",""stopped"",""left"",""left"",""left"",""left"",""left"",""left"",""left"",""left"",""left"",""left"",""left"",""left"",""left"",""left"",""left"",""left"",""left"",""left"",""left"",""left"",""left"",""left"",""left"",""left"",""left"",""left"",""left"",""left"",""left"",""left"",""left"",""left"",""left"",""left"",""left"",""left"",""left"",""left"",""left"",""left"",""left"",""left"",""left"",""left"",""left"",""left"",""left"",""left"",""left"",""left"",""left"",""left"",""left"",""left"",""left"",""left"",""left"",""left"",""left"",""left"",""left"",""left"",""left"",""left"",""left"",""left"",""left"",""left"",""left"",""left"",""left"",""left"",""stopped"",""stopped"",""stopped"",""stopped"",""stopped"",""stopped"",""stopped"",""stopped"",""stopped"",""stopped"",""stopped"",""stopped"",""stopped"",""stopped"",""stopped"",""stopped"",""stopped""]","[0,0,0,0,0,0,0,0,0,0,0,0,1,1,1,1,1,1,1,1,1,1,1,1,1,0,0,0,0,0,0,0,1,1,1,1,1,1,1,1,1,1,1,1,1,1,1,1,1,1,1,1,1,1,1,1,1,1,1,1,1,1,1,1,1,1,1,1,1,1,1,1,1,1,1,1,1,1,1,1,1,1,1,1,1,1,1,1,1,1,1,1,1,1,1,1,1,1,1,1,1,1,1,1,0,0,0,0,0,0,0,0,0,0,0,0,0,0,0,0,0]",632,"[-47,-47]","[-212.5,-212.5]","[1,1]","[0,0]","[0,0]","[2.0329999923706055,2.3980000019073486]","[""LeftClickDemo"",""LeftClickDemo""]",0,100,space,6.664999962,1,0,1,0,1,0,80,0,80,0,1,79,fangyanjun715,23,2,2020-07-15_19h23.10.185,AvatarManual,3.2.2,Win32,60,,,,,,,,,,,,,,,,,,,,,,,,,,,,,,,,,,,,,,,,,,,,,,,,,,,,,,,,,,,,,
,,,,,,,,,,,,,,,,,,,,,,,,,,400,300,0,118,3.5,0,"[""stopped"",""stopped"",""stopped"",""stopped"",""stopped"",""stopped"",""stopped"",""stopped"",""stopped"",""stopped"",""stopped"",""stopped"",""stopped"",""stopped"",""down"",""down"",""down"",""down"",""down"",""down"",""down"",""down"",""down"",""down"",""down"",""down"",""down"",""down"",""down"",""down"",""down"",""down"",""down"",""down"",""down"",""down"",""down"",""stopped"",""stopped"",""stopped"",""stopped"",""stopped"",""stopped"",""stopped"",""stopped"",""stopped"",""stopped"",""stopped"",""stopped"",""right"",""right"",""right"",""right"",""right"",""stopped"",""stopped"",""stopped"",""stopped"",""stopped"",""stopped"",""right"",""right"",""right"",""right"",""right"",""right"",""right"",""right"",""right"",""right"",""right"",""right"",""right"",""right"",""right"",""right"",""right"",""right"",""right"",""right"",""right"",""right"",""right"",""right"",""right"",""right"",""right"",""right"",""right"",""right"",""right"",""right"",""right"",""right"",""right"",""right"",""right"",""right"",""right"",""right"",""right"",""right"",""right"",""right"",""right"",""right"",""right"",""right"",""right"",""right"",""right"",""right"",""right"",""right"",""right"",""right"",""right"",""right"",""right"",""right"",""right""]","[0,0,0,0,0,0,0,0,0,0,0,0,0,0,1,1,1,1,1,1,1,1,1,1,1,1,1,1,1,1,1,1,1,1,1,1,1,0,0,0,0,0,0,0,0,0,0,0,0,1,1,1,1,1,0,0,0,0,0,0,1,1,1,1,1,1,1,1,1,1,1,1,1,1,1,1,1,1,1,1,1,1,1,1,1,1,1,1,1,1,1,1,1,1,1,1,1,1,1,1,1,1,1,1,1,1,1,1,1,1,1,1,1,1,1,1,1,1,1,1,1]",344,"[-2,45,45]","[-243.5,-202.5,-202.5]","[1,1,1]","[0,0,0]","[0,0,0]","[3.2239999771118164,3.9149999618530273,4.151000022888184]","[""DownClickDemo"",""RightClickDemo"",""RightClickDemo""]",0,100,space,1.100000143,1,0,1,0,1,0,80,0,80,0,1,79,fangyanjun715,23,2,2020-07-15_19h23.10.185,AvatarManual,3.2.2,Win32,60,,,,,,,,,,,,,,,,,,,,,,,,,,,,,,,,,,,,,,,,,,,,,,,,,,,,,,,,,,,,,
