Browser,true_x_res,true_y_res,x_adjustment,y_adjustment,Params_TravelTime,Params_yOffset,Params_Reach,Params_ScreenWidth,Params_ScreenHeight,Params_Hz,Params_HzScale,Params_conf_linewidth,ExperimentStarted,params_consent,ConsentLoop.thisRepN,ConsentLoop.thisTrialN,ConsentLoop.thisN,ConsentLoop.thisIndex,ConsentLoop.ran,ConsentLoop.order,participant,Age,Gender,date,expName,psychopyVersion,OS,frameRate,WelcomeEscape.keys,WelcomeEscape.rt,InstMouse.x,InstMouse.y,InstMouse.leftButton,InstMouse.midButton,InstMouse.rightButton,key_resp_2.keys,key_resp_2.rt,EndDemoExplantion.keys,EndDemoExplantion.rt,Demo_speedCond,Demo_delta,Demo_xposTarget,Demo_yposTarget,Demo_Delay,Demo_AvSpeed,Demo_Success,Demo_motion,Demo_Click,Demo_RTms,DemoMouse.x,DemoMouse.y,DemoMouse.leftButton,DemoMouse.midButton,DemoMouse.rightButton,DemoMouse.time,DemoMouse.clicked_name,Demo_finalX,Demo_finalY,Trial_duration,DemoFeedBackMoveOn.keys,DemoFeedBackMoveOn.rt,BlockLoop.thisRepN,BlockLoop.thisTrialN,BlockLoop.thisN,BlockLoop.thisIndex,BlockLoop.ran,BlockLoop.order,DemoLoop.thisRepN,DemoLoop.thisTrialN,DemoLoop.thisN,DemoLoop.thisIndex,DemoLoop.ran,DemoLoop.order,MoveOn.keys,MoveOn.rt,Decision_Delta,Decision_xposTarget,Decision_yposTarget,Decision_SpeedCond,Decision_AvSpeed,Decision_delay,Decision_targetSide,Decision_placement,Decision_initplace,AvatarMouse.x,AvatarMouse.y,AvatarMouse.leftButton,AvatarMouse.midButton,AvatarMouse.rightButton,AvatarMouse.time,PlacingKeyboard.keys,PlacingKeyboard.rt,Decision_Driving,Decision_Click,Decision_RTms,DrivingMouse.x,DrivingMouse.y,DrivingMouse.leftButton,DrivingMouse.midButton,DrivingMouse.rightButton,DrivingMouse.time,DrivingMouse.clicked_name,Decision_finalX,Decision_finalY,Decision_success,TrialMoveOn.keys,TrialMoveOn.rt,DecisionTrialLoop.thisRepN,DecisionTrialLoop.thisTrialN,DecisionTrialLoop.thisN,DecisionTrialLoop.thisIndex,DecisionTrialLoop.ran,DecisionTrialLoop.order,key_resp.keys,key_resp.rt,Conf_mouse.x,Conf_mouse.y,Conf_mouse.leftButton,Conf_mouse.midButton,Conf_mouse.rightButton,Conf_mouse.time,Conf_resp.keys,Conf_resp.rt,Confidence_Delta,Confidence_resp,ConfidenceLoop.thisRepN,ConfidenceLoop.thisTrialN,ConfidenceLoop.thisN,ConfidenceLoop.thisIndex,ConfidenceLoop.ran,ConfidenceLoop.order,exp_duration
Chrome,1238,776,1,1,120,100,45,1200,600,60,1,300,7/16/20,Agreed,3,0,3,0,1,2,liuchen-714,22,M,2020-07-16_16h42.59.976,AvatarManual,3.2.2,MacIntel,60,,,,,,,,,,,,,,,,,,,,,,,,,,,,,,,,,,,,,,,,,,,,,,,,,,,,,,,,,,,,,,,,,,,,,,,,,,,,,,,,,,,,,,,,,,,,,,,,,,,,,,,,
,,,,,,,,,,,,,,Agreed,3,0,3,0,1,2,liuchen-714,22,M,2020-07-16_16h42.59.976,AvatarManual,3.2.2,MacIntel,60,,,,,,,,,,,,,,,,,,,,,,,,,,,,,,,,,,,,,,,,,,,,,,,,,,,,,,,,,,,,,,,,,,,,,,,,,,,,,,,,,,,,,,,,,,,,,,,,,,,,,,,,
,,,,,,,,,,,,,,Agreed,3,0,3,0,1,2,liuchen-714,22,M,2020-07-16_16h42.59.976,AvatarManual,3.2.2,MacIntel,60,,,,,,,,,,,,,,,,,,,,,,,,,,,,,,,,,,,,,,,,,,,,,,,,,,,,,,,,,,,,,,,,,,,,,,,,,,,,,,,,,,,,,,,,,,,,,,,,,,,,,,,,
,,,,,,,,,,,,,,,,,,,,,liuchen-714,22,M,2020-07-16_16h42.59.976,AvatarManual,3.2.2,MacIntel,60,space,2.407999992,30.03173828,-191.2168579,0,0,0,space,7.677999973,space,3.812000036,const,200,100,0,119,3.5,0,"[""stopped"",""stopped"",""stopped"",""stopped"",""stopped"",""stopped"",""stopped"",""stopped"",""stopped"",""stopped"",""stopped"",""stopped"",""stopped"",""stopped"",""stopped"",""stopped"",""stopped"",""stopped"",""stopped"",""stopped"",""stopped"",""stopped"",""stopped"",""stopped"",""stopped"",""stopped"",""stopped"",""stopped"",""stopped"",""stopped"",""stopped"",""stopped"",""stopped"",""stopped"",""stopped"",""stopped"",""stopped"",""stopped"",""stopped"",""stopped"",""stopped"",""stopped"",""stopped"",""stopped"",""stopped"",""stopped"",""stopped"",""stopped"",""stopped"",""stopped"",""stopped"",""stopped"",""stopped"",""stopped"",""stopped"",""stopped"",""stopped"",""stopped"",""stopped"",""stopped"",""stopped"",""stopped"",""stopped"",""stopped"",""stopped"",""stopped"",""stopped"",""stopped"",""stopped"",""stopped"",""stopped"",""stopped"",""stopped"",""stopped"",""stopped"",""stopped"",""stopped"",""stopped"",""down"",""down"",""down"",""down"",""down"",""down"",""down"",""stopped"",""stopped"",""stopped"",""stopped"",""stopped"",""stopped"",""stopped"",""stopped"",""stopped"",""stopped"",""stopped"",""stopped"",""stopped"",""stopped"",""stopped"",""stopped"",""stopped"",""stopped"",""stopped"",""down"",""down"",""down"",""down"",""down"",""down"",""stopped"",""stopped"",""stopped"",""stopped"",""stopped"",""stopped"",""stopped"",""stopped"",""stopped"",""stopped"",""stopped""]","[0,0,0,0,0,0,0,0,0,0,0,0,0,0,0,0,0,0,0,0,0,0,0,0,0,0,0,0,0,0,0,0,0,0,0,0,0,0,0,0,0,0,0,0,0,0,0,0,0,0,0,0,0,0,0,0,0,0,0,0,0,0,0,0,0,0,0,0,0,0,0,0,0,0,0,0,0,0,1,1,1,1,1,1,1,0,0,0,0,0,0,0,0,0,0,0,0,0,0,0,0,0,0,0,1,1,1,1,1,1,0,0,0,0,0,0,0,0,0,0,0]",1301,"[5.10626220703125,4.75018310546875,1.18939208984375,-8.521484375,-1.54547119140625,-4.7286376953125,-5.084716796875,1.10406494140625,2.5887451171875,2.5887451171875]","[-230.3857421875,-230.3857421875,-229.673583984375,92.5845947265625,-151.86309814453125,-6.2899169921875,-6.2899169921875,-188.8656005859375,-236.608154296875,-236.608154296875]","[1,1,1,1,1,1,1,1,1,1]","[0,0,0,0,0,0,0,0,0,0]","[0,0,0,0,0,0,0,0,0,0]","[0.6679999828338623,0.9489998817443848,2.885999917984009,5.222999811172485,5.879999876022339,7.398000001907349,7.580999851226807,8.881999969482422,10.166999816894531,10.60099983215332]","[""DownClickDemo"",""DownClickDemo"",""DownClickDemo"",""UpClickDemo"",""DownClickDemo"",""DownClickDemo""]",0,54.5,14823,space,2.937000036,1,0,1,0,1,0,48,0,48,0,1,47,,,,,,,,,,,,,,,,,,,,,,,,,,,,,,,,,,,,,,,,,,,,,,,,,,,,,,,,,,,
,,,,,,,,,,,,,,,,,,,,,liuchen-714,22,M,2020-07-16_16h42.59.976,AvatarManual,3.2.2,MacIntel,60,,,,,,,,,,,,,400,-300,0,78,3.5,0,"[""stopped"",""stopped"",""stopped"",""stopped"",""stopped"",""stopped"",""stopped"",""stopped"",""stopped"",""stopped"",""stopped"",""stopped"",""stopped"",""stopped"",""stopped"",""stopped"",""stopped"",""left"",""left"",""left"",""left"",""left"",""stopped"",""stopped"",""stopped"",""left"",""left"",""left"",""left"",""left"",""left"",""stopped"",""stopped"",""stopped"",""left"",""left"",""left"",""left"",""left"",""stopped"",""stopped"",""stopped"",""stopped"",""left"",""left"",""left"",""left"",""left"",""left"",""stopped"",""stopped"",""stopped"",""stopped"",""left"",""left"",""left"",""left"",""left"",""stopped"",""stopped"",""stopped"",""stopped"",""left"",""left"",""left"",""left"",""left"",""stopped"",""stopped"",""stopped"",""stopped"",""stopped"",""left"",""left"",""left"",""left"",""left"",""stopped"",""stopped"",""stopped"",""stopped"",""left"",""left"",""left"",""left"",""left"",""stopped"",""stopped"",""stopped"",""stopped"",""stopped"",""left"",""left"",""left"",""left"",""left"",""stopped"",""stopped"",""stopped"",""stopped"",""left"",""left"",""left"",""left"",""left"",""stopped"",""stopped"",""stopped"",""stopped"",""left"",""left"",""left"",""left"",""left"",""stopped"",""stopped"",""stopped"",""stopped"",""stopped"",""left"",""left""]","[0,0,0,0,0,0,0,0,0,0,0,0,0,0,0,0,0,1,1,1,1,1,0,0,0,1,1,1,1,1,1,0,0,0,1,1,1,1,1,0,0,0,0,1,1,1,1,1,1,0,0,0,0,1,1,1,1,1,0,0,0,0,1,1,1,1,1,0,0,0,0,0,1,1,1,1,1,0,0,0,0,1,1,1,1,1,0,0,0,0,0,1,1,1,1,1,0,0,0,0,1,1,1,1,1,0,0,0,0,1,1,1,1,1,0,0,0,0,0,1,1]",283,"[-46.1944580078125,-12.0108642578125,-13.0791015625,-13.4351806640625,-13.4351806640625,-13.4351806640625,-13.0791015625,-12.366943359375,-40.28692626953125,-40.99908447265625,-40.99908447265625,-40.99908447265625,-40.99908447265625,-40.99908447265625,-40.99908447265625,-40.99908447265625,-40.99908447265625,-44.91595458984375,-44.91595458984375,-44.91595458984375,-43.84771728515625,-43.84771728515625,-43.84771728515625,-43.84771728515625,-43.84771728515625,-43.84771728515625,-43.84771728515625,-43.84771728515625]","[-199.21978759765625,-234.11553955078125,-231.97906494140625,-231.97906494140625,-231.97906494140625,-231.97906494140625,-231.97906494140625,-231.97906494140625,-205.294677734375,-204.58251953125,-204.58251953125,-204.58251953125,-204.58251953125,-204.58251953125,-204.58251953125,-204.58251953125,-204.58251953125,-194.96832275390625,-194.96832275390625,-194.96832275390625,-196.39263916015625,-196.74871826171875,-196.74871826171875,-196.74871826171875,-196.74871826171875,-196.74871826171875,-196.74871826171875,-196.74871826171875]","[1,1,1,1,1,1,1,1,1,1,1,1,1,1,1,1,1,1,1,1,1,1,1,1,1,1,1,1]","[0,0,0,0,0,0,0,0,0,0,0,0,0,0,0,0,0,0,0,0,0,0,0,0,0,0,0,0]","[0,0,0,0,0,0,0,0,0,0,0,0,0,0,0,0,0,0,0,0,0,0,0,0,0,0,0,0]","[0.6180000305175781,1.3670001029968262,1.8859999179840088,2.0339999198913574,2.184999942779541,2.3510000705718994,2.500999927520752,2.6679999828338623,2.86899995803833,3.052000045776367,3.236999988555908,3.4030001163482666,3.569000005722046,3.7360000610351562,3.9200000762939453,4.138000011444092,6.541000127792358,6.67300009727478,6.825000047683716,6.9730000495910645,7.141000032424927,7.29200005531311,7.459000110626221,7.608000040054321,7.775000095367432,7.926000118255615,8.075999975204468,8.243000030517578]","[""LeftClickDemo"",""DownClickDemo"",""DownClickDemo"",""DownClickDemo"",""DownClickDemo"",""DownClickDemo"",""DownClickDemo"",""DownClickDemo"",""LeftClickDemo"",""LeftClickDemo"",""LeftClickDemo"",""LeftClickDemo"",""LeftClickDemo"",""LeftClickDemo"",""LeftClickDemo"",""LeftClickDemo"",""LeftClickDemo"",""LeftClickDemo"",""LeftClickDemo"",""LeftClickDemo"",""LeftClickDemo"",""LeftClickDemo"",""LeftClickDemo"",""LeftClickDemo"",""LeftClickDemo"",""LeftClickDemo"",""LeftClickDemo"",""LeftClickDemo""]",-206.5,100,11903,space,2.609000206,1,0,1,0,1,0,48,0,48,0,1,47,,,,,,,,,,,,,,,,,,,,,,,,,,,,,,,,,,,,,,,,,,,,,,,,,,,,,,,,,,,
,,,,,,,,,,,,,,,,,,,,,liuchen-714,22,M,2020-07-16_16h42.59.976,AvatarManual,3.2.2,MacIntel,60,,,,,,,,,,,,,300,-200,0,78,3.5,0,"[""stopped"",""stopped"",""stopped"",""stopped"",""stopped"",""stopped"",""stopped"",""stopped"",""stopped"",""stopped"",""stopped"",""stopped"",""stopped"",""stopped"",""stopped"",""stopped"",""stopped"",""stopped"",""stopped"",""stopped"",""stopped"",""stopped"",""stopped"",""stopped"",""stopped"",""stopped"",""stopped"",""stopped"",""stopped"",""stopped"",""stopped"",""stopped"",""stopped"",""stopped"",""stopped"",""stopped"",""stopped"",""stopped"",""stopped"",""stopped"",""stopped"",""stopped"",""stopped"",""stopped"",""stopped"",""stopped"",""left"",""left"",""left"",""left"",""left"",""stopped"",""stopped"",""stopped"",""stopped"",""left"",""left"",""left"",""left"",""left"",""left"",""stopped"",""stopped"",""stopped"",""stopped"",""left"",""left"",""left"",""left"",""left"",""stopped"",""stopped"",""stopped"",""stopped"",""left"",""left"",""left"",""left"",""left"",""left"",""stopped"",""stopped"",""stopped"",""left"",""left"",""left"",""left"",""left"",""stopped"",""stopped"",""stopped"",""left"",""left"",""left"",""left"",""left"",""stopped"",""stopped"",""stopped"",""stopped"",""left"",""left"",""left"",""left"",""left"",""left"",""left"",""left"",""stopped"",""stopped"",""left"",""left"",""left"",""left"",""left"",""left"",""left"",""stopped"",""stopped"",""stopped"",""stopped""]","[0,0,0,0,0,0,0,0,0,0,0,0,0,0,0,0,0,0,0,0,0,0,0,0,0,0,0,0,0,0,0,0,0,0,0,0,0,0,0,0,0,0,0,0,0,0,1,1,1,1,1,0,0,0,0,1,1,1,1,1,1,0,0,0,0,1,1,1,1,1,0,0,0,0,1,1,1,1,1,1,0,0,0,1,1,1,1,1,0,0,0,1,1,1,1,1,0,0,0,0,1,1,1,1,1,1,1,1,0,0,1,1,1,1,1,1,1,0,0,0,0]",783,"[-24.97552490234375,-24.97552490234375,-37.43829345703125,-37.43829345703125,-40.64300537109375,-40.64300537109375,-40.64300537109375,-40.64300537109375,-40.64300537109375,-40.64300537109375]","[-199.59716796875,-199.59716796875,-196.036376953125,-196.036376953125,-197.1046142578125,-197.1046142578125,-197.1046142578125,-197.1046142578125,-197.1046142578125,-197.1046142578125]","[1,1,1,1,1,1,1,1,1,1]","[0,0,0,0,0,0,0,0,0,0]","[0,0,0,0,0,0,0,0,0,0]","[1.9189999103546143,2.052999973297119,2.2189998626708984,2.369999885559082,2.5360000133514404,2.685999870300293,2.8369998931884766,2.9700000286102295,3.119999885559082,3.2849998474121094]","[""LeftClickDemo"",""LeftClickDemo"",""LeftClickDemo"",""LeftClickDemo"",""LeftClickDemo"",""LeftClickDemo"",""LeftClickDemo"",""LeftClickDemo""]",-164.5,100,4872,space,0.39199996,1,0,1,0,1,0,48,0,48,0,1,47,,,,,,,,,,,,,,,,,,,,,,,,,,,,,,,,,,,,,,,,,,,,,,,,,,,,,,,,,,,
,,,,,,,,,,,,,,,,,,,,,liuchen-714,22,M,2020-07-16_16h42.59.976,AvatarManual,3.2.2,MacIntel,60,,,,,,,,,,,,,200,-100,0,92,3.5,1,"[""stopped"",""stopped"",""stopped"",""stopped"",""stopped"",""stopped"",""stopped"",""stopped"",""stopped"",""stopped"",""stopped"",""stopped"",""stopped"",""stopped"",""stopped"",""stopped"",""stopped"",""stopped"",""stopped"",""down"",""down"",""down"",""down"",""stopped"",""stopped"",""stopped"",""stopped"",""down"",""down"",""down"",""down"",""down"",""stopped"",""stopped"",""stopped"",""stopped"",""down"",""down"",""down"",""down"",""down"",""stopped"",""stopped"",""stopped"",""stopped"",""stopped"",""down"",""down"",""down"",""down"",""stopped"",""stopped"",""stopped"",""stopped"",""stopped"",""down"",""down"",""down"",""down"",""down"",""stopped"",""stopped"",""stopped"",""down"",""down"",""down"",""down"",""down"",""stopped"",""stopped"",""stopped"",""stopped"",""stopped"",""stopped"",""stopped"",""stopped"",""stopped"",""left"",""left"",""left"",""left"",""left"",""left"",""stopped"",""stopped"",""stopped"",""left"",""left"",""left"",""left"",""left"",""left"",""stopped"",""stopped"",""stopped"",""stopped"",""left"",""left"",""left"",""left""]","[0,0,0,0,0,0,0,0,0,0,0,0,0,0,0,0,0,0,0,1,1,1,1,0,0,0,0,1,1,1,1,1,0,0,0,0,1,1,1,1,1,0,0,0,0,0,1,1,1,1,0,0,0,0,0,1,1,1,1,1,0,0,0,1,1,1,1,1,0,0,0,0,0,0,0,0,0,1,1,1,1,1,1,0,0,0,1,1,1,1,1,1,0,0,0,0,1,1,1,1]",317,"[4.0341796875,4.0341796875,4.0341796875,4.0341796875,4.0341796875,4.0341796875,-59.61065673828125,-59.61065673828125,-59.61065673828125]","[-230.721923828125,-230.721923828125,-230.721923828125,-230.721923828125,-230.721923828125,-230.721923828125,-186.7098388671875,-186.7098388671875,-186.7098388671875]","[1,1,1,1,1,1,1,1,1]","[0,0,0,0,0,0,0,0,0]","[0,0,0,0,0,0,0,0,0]","[1.8420000076293945,1.9760000705718994,2.125,2.2920000553131104,2.441999912261963,2.575000047683716,2.809000015258789,2.9579999446868896,3.125999927520752]","[""DownClickDemo"",""DownClickDemo"",""DownClickDemo"",""DownClickDemo"",""DownClickDemo"",""DownClickDemo"",""LeftClickDemo"",""LeftClickDemo"",""LeftClickDemo""]",-56,2,5595,space,1.388999939,1,0,1,0,1,0,48,0,48,0,1,47,,,,,,,,,,,,,,,,,,,,,,,,,,,,,,,,,,,,,,,,,,,,,,,,,,,,,,,,,,,
,,,,,,,,,,,,,,,,,,,,,liuchen-714,22,M,2020-07-16_16h42.59.976,AvatarManual,3.2.2,MacIntel,60,,,,,,,,,,,,,500,400,0,121,3.5,0,"[""stopped"",""stopped"",""stopped"",""stopped"",""stopped"",""stopped"",""stopped"",""stopped"",""stopped"",""stopped"",""stopped"",""stopped"",""stopped"",""stopped"",""stopped"",""stopped"",""right"",""right"",""right"",""right"",""stopped"",""stopped"",""stopped"",""stopped"",""right"",""right"",""right"",""right"",""right"",""stopped"",""stopped"",""stopped"",""stopped"",""stopped"",""right"",""right"",""right"",""right"",""right"",""stopped"",""stopped"",""stopped"",""stopped"",""right"",""right"",""right"",""right"",""right"",""right"",""stopped"",""stopped"",""stopped"",""right"",""right"",""right"",""right"",""right"",""right"",""stopped"",""stopped"",""stopped"",""stopped"",""right"",""right"",""right"",""right"",""right"",""stopped"",""stopped"",""stopped"",""stopped"",""right"",""right"",""right"",""right"",""right"",""stopped"",""stopped"",""stopped"",""stopped"",""right"",""right"",""right"",""right"",""right"",""stopped"",""stopped"",""stopped"",""stopped"",""right"",""right"",""right"",""right"",""right"",""stopped"",""stopped"",""stopped"",""stopped"",""right"",""right"",""right"",""right"",""right"",""stopped"",""stopped"",""right"",""right"",""right"",""right"",""right"",""right"",""right"",""right"",""right"",""right"",""stopped"",""stopped"",""stopped"",""right"",""right"",""right""]","[0,0,0,0,0,0,0,0,0,0,0,0,0,0,0,0,1,1,1,1,0,0,0,0,1,1,1,1,1,0,0,0,0,0,1,1,1,1,1,0,0,0,0,1,1,1,1,1,1,0,0,0,1,1,1,1,1,1,0,0,0,0,1,1,1,1,1,0,0,0,0,1,1,1,1,1,0,0,0,0,1,1,1,1,1,0,0,0,0,1,1,1,1,1,0,0,0,0,1,1,1,1,1,0,0,1,1,1,1,1,1,1,1,1,1,0,0,0,1,1,1]",265,"[43.7738037109375,43.7738037109375,43.7738037109375,43.7738037109375,47.3345947265625,47.3345947265625,47.3345947265625,47.3345947265625,47.3345947265625,47.3345947265625,47.3345947265625,47.3345947265625,47.3345947265625,47.3345947265625,47.3345947265625,47.3345947265625]","[-188.820068359375,-188.820068359375,-188.820068359375,-188.820068359375,-202.35107421875,-202.35107421875,-202.35107421875,-202.35107421875,-202.35107421875,-202.35107421875,-202.35107421875,-202.35107421875,-202.35107421875,-202.35107421875,-202.35107421875,-202.35107421875]","[1,1,1,1,1,1,1,1,1,1,1,1,1,1,1,1]","[0,0,0,0,0,0,0,0,0,0,0,0,0,0,0,0]","[0,0,0,0,0,0,0,0,0,0,0,0,0,0,0,0]","[1.936000108718872,2.0850000381469727,2.252000093460083,2.4189999103546143,5.246000051498413,5.380000114440918,5.54800009727478,5.697000026702881,5.8470001220703125,6.013999938964844,6.164000034332275,6.314000129699707,6.4649999141693115,6.614000082015991,6.732000112533569,6.949000120162964]","[""RightClickDemo"",""RightClickDemo"",""RightClickDemo"",""RightClickDemo"",""RightClickDemo"",""RightClickDemo"",""RightClickDemo"",""RightClickDemo"",""RightClickDemo"",""RightClickDemo"",""RightClickDemo"",""RightClickDemo"",""RightClickDemo"",""RightClickDemo"",""RightClickDemo"",""RightClickDemo""]",224,100,9234,space,1.220999956,1,0,1,0,1,0,48,0,48,0,1,47,,,,,,,,,,,,,,,,,,,,,,,,,,,,,,,,,,,,,,,,,,,,,,,,,,,,,,,,,,,
,,,,,,,,,,,,,,,,,,,,,liuchen-714,22,M,2020-07-16_16h42.59.976,AvatarManual,3.2.2,MacIntel,60,,,,,,,,,,,,,400,-300,0,66,3.5,0,"[""stopped"",""stopped"",""stopped"",""stopped"",""stopped"",""stopped"",""stopped"",""stopped"",""stopped"",""stopped"",""stopped"",""stopped"",""stopped"",""stopped"",""stopped"",""stopped"",""stopped"",""stopped"",""stopped"",""stopped"",""stopped"",""stopped"",""stopped"",""stopped"",""stopped"",""stopped"",""stopped"",""stopped"",""stopped"",""stopped"",""stopped"",""stopped"",""stopped"",""stopped"",""stopped"",""stopped"",""stopped"",""stopped"",""stopped"",""stopped"",""stopped"",""stopped"",""stopped"",""stopped"",""stopped"",""stopped"",""stopped"",""stopped"",""stopped"",""stopped"",""stopped"",""stopped"",""stopped"",""stopped"",""stopped"",""stopped"",""stopped"",""stopped"",""stopped"",""stopped"",""stopped"",""stopped"",""stopped"",""stopped"",""stopped"",""stopped"",""stopped"",""stopped"",""stopped"",""stopped"",""stopped"",""stopped"",""stopped"",""stopped"",""stopped"",""stopped"",""stopped"",""stopped"",""stopped"",""stopped"",""stopped"",""stopped"",""stopped"",""stopped"",""stopped"",""stopped"",""stopped"",""stopped"",""stopped"",""stopped"",""stopped"",""stopped"",""stopped"",""stopped"",""stopped"",""stopped"",""stopped"",""stopped"",""stopped"",""stopped"",""stopped"",""stopped"",""stopped"",""stopped"",""stopped"",""stopped"",""stopped"",""stopped"",""stopped"",""stopped"",""stopped"",""stopped"",""stopped"",""stopped"",""stopped"",""stopped"",""stopped"",""stopped"",""left"",""left"",""left""]","[0,0,0,0,0,0,0,0,0,0,0,0,0,0,0,0,0,0,0,0,0,0,0,0,0,0,0,0,0,0,0,0,0,0,0,0,0,0,0,0,0,0,0,0,0,0,0,0,0,0,0,0,0,0,0,0,0,0,0,0,0,0,0,0,0,0,0,0,0,0,0,0,0,0,0,0,0,0,0,0,0,0,0,0,0,0,0,0,0,0,0,0,0,0,0,0,0,0,0,0,0,0,0,0,0,0,0,0,0,0,0,0,0,0,0,0,0,0,1,1,1]",2151,[-49.66485595703125],[-194.3502197265625],[1],[0],[0],[3.3519999980926514],"[""LeftClickDemo""]",-10.5,100,4960,space,0.549999952,1,0,1,0,1,0,48,0,48,0,1,47,,,,,,,,,,,,,,,,,,,,,,,,,,,,,,,,,,,,,,,,,,,,,,,,,,,,,,,,,,,
,,,,,,,,,,,,,,,,,,,,,liuchen-714,22,M,2020-07-16_16h42.59.976,AvatarManual,3.2.2,MacIntel,60,,,,,,,,,,,,,200,100,0,130,3.5,1,"[""stopped"",""stopped"",""stopped"",""stopped"",""stopped"",""stopped"",""stopped"",""stopped"",""stopped"",""stopped"",""stopped"",""stopped"",""stopped"",""stopped"",""stopped"",""stopped"",""right"",""right"",""right"",""right"",""right"",""stopped"",""stopped"",""stopped"",""stopped"",""right"",""right"",""right"",""right"",""right"",""stopped"",""stopped"",""stopped"",""stopped"",""right"",""right"",""right"",""right"",""right"",""stopped"",""stopped"",""stopped"",""stopped"",""stopped"",""right"",""right"",""right"",""right"",""stopped"",""stopped"",""stopped"",""stopped"",""stopped"",""stopped"",""stopped"",""stopped"",""stopped"",""stopped"",""down"",""down"",""down"",""down"",""down"",""stopped"",""stopped"",""stopped"",""stopped"",""down"",""down"",""down"",""down"",""down"",""stopped"",""stopped"",""stopped"",""stopped"",""stopped"",""down"",""down"",""down"",""down"",""stopped"",""stopped"",""stopped"",""stopped"",""stopped"",""down"",""down"",""down"",""down"",""down"",""stopped"",""stopped"",""stopped"",""stopped"",""stopped"",""stopped"",""down""]","[0,0,0,0,0,0,0,0,0,0,0,0,0,0,0,0,1,1,1,1,1,0,0,0,0,1,1,1,1,1,0,0,0,0,1,1,1,1,1,0,0,0,0,0,1,1,1,1,0,0,0,0,0,0,0,0,0,0,1,1,1,1,1,0,0,0,0,1,1,1,1,1,0,0,0,0,0,1,1,1,1,0,0,0,0,0,1,1,1,1,1,0,0,0,0,0,0,1]",266,"[35.08203125,32.5894775390625,32.5894775390625,32.5894775390625,-9.05059814453125,-6.91412353515625,-6.91412353515625,-3.35333251953125,-3.35333251953125]","[-193.994140625,-193.281982421875,-193.281982421875,-193.281982421875,-224.05059814453125,-223.33843994140625,-223.33843994140625,-222.27020263671875,-222.27020263671875]","[1,1,1,1,1,1,1,1,1]","[0,0,0,0,0,0,0,0,0]","[0,0,0,0,0,0,0,0,0]","[2.431999921798706,2.5819997787475586,2.732999801635742,2.8980000019073486,3.132999897003174,3.2829999923706055,3.447999954223633,3.5999999046325684,3.7839999198913574]","[""RightClickDemo"",""RightClickDemo"",""RightClickDemo"",""RightClickDemo"",""DownClickDemo"",""DownClickDemo"",""DownClickDemo"",""DownClickDemo"",""DownClickDemo""]",66.5,30,5084,space,0.265000105,1,0,1,0,1,0,48,0,48,0,1,47,,,,,,,,,,,,,,,,,,,,,,,,,,,,,,,,,,,,,,,,,,,,,,,,,,,,,,,,,,,
,,,,,,,,,,,,,,,,,,,,,liuchen-714,22,M,2020-07-16_16h42.59.976,AvatarManual,3.2.2,MacIntel,60,,,,,,,,,,,,,300,-200,0,95,3.5,0,"[""stopped"",""stopped"",""stopped"",""stopped"",""stopped"",""stopped"",""stopped"",""stopped"",""stopped"",""stopped"",""stopped"",""stopped"",""stopped"",""stopped"",""stopped"",""stopped"",""stopped"",""stopped"",""stopped"",""stopped"",""stopped"",""stopped"",""stopped"",""stopped"",""stopped"",""stopped"",""stopped"",""stopped"",""stopped"",""stopped"",""stopped"",""stopped"",""stopped"",""stopped"",""stopped"",""stopped"",""stopped"",""stopped"",""stopped"",""stopped"",""stopped"",""stopped"",""stopped"",""stopped"",""stopped"",""stopped"",""stopped"",""stopped"",""stopped"",""down"",""stopped"",""stopped"",""stopped"",""stopped"",""stopped"",""down"",""down"",""down"",""down"",""down"",""stopped"",""stopped"",""stopped"",""stopped"",""down"",""down"",""down"",""down"",""down"",""down"",""stopped"",""stopped"",""stopped"",""down"",""down"",""down"",""down"",""down"",""stopped"",""stopped"",""stopped"",""stopped"",""stopped"",""down"",""down"",""down"",""down"",""down"",""stopped"",""stopped"",""stopped"",""stopped"",""stopped"",""stopped"",""stopped"",""stopped"",""left"",""left"",""left"",""left"",""left"",""left"",""stopped"",""stopped"",""stopped"",""stopped"",""left"",""left"",""left"",""left"",""left"",""stopped"",""stopped"",""stopped"",""stopped"",""stopped"",""left"",""left"",""left"",""left"",""left""]","[0,0,0,0,0,0,0,0,0,0,0,0,0,0,0,0,0,0,0,0,0,0,0,0,0,0,0,0,0,0,0,0,0,0,0,0,0,0,0,0,0,0,0,0,0,0,0,0,0,1,0,0,0,0,0,1,1,1,1,1,0,0,0,0,1,1,1,1,1,1,0,0,0,1,1,1,1,1,0,0,0,0,0,1,1,1,1,1,0,0,0,0,0,0,0,0,1,1,1,1,1,1,0,0,0,0,1,1,1,1,1,0,0,0,0,0,1,1,1,1,1]",817,"[-5.13372802734375,-5.13372802734375,-5.13372802734375,-6.55804443359375,-6.91412353515625,-6.91412353515625,-6.91412353515625,-46.0831298828125,-46.0831298828125,-46.0831298828125]","[-218.70941162109375,-218.70941162109375,-218.70941162109375,-230.81610107421875,-230.46002197265625,-230.46002197265625,-230.46002197265625,-199.837158203125,-199.837158203125,-199.837158203125]","[1,1,1,1,1,1,1,1,1,1]","[0,0,0,0,0,0,0,0,0,0]","[0,0,0,0,0,0,0,0,0,0]","[2.052000045776367,2.184999942779541,2.3519999980926514,2.501000165939331,2.6579999923706055,2.809000015258789,2.9750001430511475,3.193000078201294,3.3600001335144043,3.5260000228881836]","[""DownClickDemo"",""DownClickDemo"",""DownClickDemo"",""DownClickDemo"",""LeftClickDemo"",""LeftClickDemo"",""LeftClickDemo""]",-56,23,5094,space,0.483999968,1,0,1,0,1,0,48,0,48,0,1,47,,,,,,,,,,,,,,,,,,,,,,,,,,,,,,,,,,,,,,,,,,,,,,,,,,,,,,,,,,,
,,,,,,,,,,,,,,,,,,,,,liuchen-714,22,M,2020-07-16_16h42.59.976,AvatarManual,3.2.2,MacIntel,60,,,,,,,,,,,,,500,400,0,82,3.5,0,"[""stopped"",""stopped"",""stopped"",""stopped"",""stopped"",""stopped"",""stopped"",""stopped"",""stopped"",""stopped"",""stopped"",""stopped"",""stopped"",""stopped"",""stopped"",""stopped"",""stopped"",""stopped"",""stopped"",""stopped"",""stopped"",""stopped"",""stopped"",""stopped"",""stopped"",""stopped"",""stopped"",""stopped"",""stopped"",""stopped"",""stopped"",""stopped"",""stopped"",""stopped"",""stopped"",""stopped"",""stopped"",""stopped"",""stopped"",""stopped"",""stopped"",""stopped"",""stopped"",""stopped"",""stopped"",""stopped"",""stopped"",""stopped"",""stopped"",""right"",""right"",""right"",""right"",""stopped"",""stopped"",""stopped"",""right"",""right"",""right"",""right"",""stopped"",""stopped"",""stopped"",""stopped"",""right"",""right"",""right"",""right"",""stopped"",""stopped"",""stopped"",""stopped"",""right"",""right"",""right"",""stopped"",""stopped"",""stopped"",""stopped"",""right"",""right"",""right"",""right"",""right"",""stopped"",""stopped"",""stopped"",""stopped"",""stopped"",""right"",""right"",""right"",""right"",""right"",""stopped"",""stopped"",""stopped"",""stopped"",""right"",""right"",""right"",""right"",""right"",""stopped"",""stopped"",""stopped"",""stopped"",""right"",""right"",""right"",""right"",""right"",""right"",""right"",""stopped"",""stopped"",""stopped"",""stopped"",""right"",""right"",""right""]","[0,0,0,0,0,0,0,0,0,0,0,0,0,0,0,0,0,0,0,0,0,0,0,0,0,0,0,0,0,0,0,0,0,0,0,0,0,0,0,0,0,0,0,0,0,0,0,0,0,1,1,1,1,0,0,0,1,1,1,1,0,0,0,0,1,1,1,1,0,0,0,0,1,1,1,0,0,0,0,1,1,1,1,1,0,0,0,0,0,1,1,1,1,1,0,0,0,0,1,1,1,1,1,0,0,0,0,1,1,1,1,1,1,1,0,0,0,0,1,1,1]",835,"[37.95166015625,37.95166015625,37.95166015625,37.95166015625,37.95166015625,37.95166015625,37.95166015625,37.95166015625,44.0050048828125]","[-195.92022705078125,-195.92022705078125,-197.70062255859375,-198.05670166015625,-198.05670166015625,-198.05670166015625,-198.05670166015625,-198.05670166015625,-198.41278076171875]","[1,1,1,1,1,1,1,1,1]","[0,0,0,0,0,0,0,0,0]","[0,0,0,0,0,0,0,0,0]","[2.187000036239624,2.3380000591278076,2.505000114440918,2.6710000038146973,2.805000066757202,2.9700000286102295,3.121999979019165,3.2720000743865967,3.455000162124634]","[""RightClickDemo"",""RightClickDemo"",""RightClickDemo"",""RightClickDemo"",""RightClickDemo"",""RightClickDemo"",""RightClickDemo"",""RightClickDemo"",""RightClickDemo""]",140,100,5155,space,0.64199996,1,0,1,0,1,0,48,0,48,0,1,47,,,,,,,,,,,,,,,,,,,,,,,,,,,,,,,,,,,,,,,,,,,,,,,,,,,,,,,,,,,
,,,,,,,,,,,,,,,,,,,,,liuchen-714,22,M,2020-07-16_16h42.59.976,AvatarManual,3.2.2,MacIntel,60,,,,,,,,,,,,,500,400,0,124,3.5,0,"[""stopped"",""stopped"",""stopped"",""stopped"",""stopped"",""stopped"",""stopped"",""stopped"",""stopped"",""stopped"",""stopped"",""stopped"",""stopped"",""stopped"",""stopped"",""stopped"",""stopped"",""stopped"",""stopped"",""stopped"",""down"",""down"",""down"",""down"",""down"",""stopped"",""stopped"",""stopped"",""down"",""down"",""down"",""down"",""down"",""stopped"",""stopped"",""stopped"",""stopped"",""down"",""down"",""down"",""down"",""down"",""down"",""down"",""stopped"",""stopped"",""stopped"",""stopped"",""down"",""down"",""down"",""down"",""stopped"",""stopped"",""stopped"",""stopped"",""stopped"",""down"",""down"",""down"",""down"",""stopped"",""stopped"",""stopped"",""stopped"",""stopped"",""stopped"",""right"",""right"",""right"",""right"",""right"",""right"",""right"",""stopped"",""stopped"",""stopped"",""right"",""right"",""right"",""right"",""right"",""right"",""stopped"",""stopped"",""stopped"",""stopped"",""right"",""right"",""right"",""right"",""right"",""right"",""stopped"",""stopped"",""stopped"",""right"",""right"",""right"",""right"",""right"",""right"",""right"",""stopped"",""stopped"",""stopped"",""right"",""right"",""right"",""right"",""right"",""right"",""stopped"",""stopped"",""stopped"",""stopped"",""right"",""right"",""right"",""right"",""right""]","[0,0,0,0,0,0,0,0,0,0,0,0,0,0,0,0,0,0,0,0,1,1,1,1,1,0,0,0,1,1,1,1,1,0,0,0,0,1,1,1,1,1,1,1,0,0,0,0,1,1,1,1,0,0,0,0,0,1,1,1,1,0,0,0,0,0,0,1,1,1,1,1,1,1,0,0,0,1,1,1,1,1,1,0,0,0,0,1,1,1,1,1,1,0,0,0,1,1,1,1,1,1,1,0,0,0,1,1,1,1,1,1,0,0,0,0,1,1,1,1,1]",333,"[-12.6119384765625,-12.6119384765625,-12.6119384765625,-12.6119384765625,-10.83154296875,30.1177978515625,30.1177978515625,31.5421142578125,32.6103515625,32.6103515625,32.6103515625]","[-230.0821533203125,-230.0821533203125,-230.0821533203125,-230.0821533203125,-229.3699951171875,-194.8302001953125,-194.8302001953125,-193.4058837890625,-191.2694091796875,-190.913330078125,-190.913330078125]","[1,1,1,1,1,1,1,1,1,1,1]","[0,0,0,0,0,0,0,0,0,0,0]","[0,0,0,0,0,0,0,0,0,0,0]","[2.3930001258850098,2.5260000228881836,2.6760001182556152,2.8600001335144043,3.009999990463257,3.177000045776367,3.3440001010894775,3.511000156402588,3.6620001792907715,3.828000068664551,3.995000123977661]","[""DownClickDemo"",""DownClickDemo"",""DownClickDemo"",""DownClickDemo"",""DownClickDemo"",""RightClickDemo"",""RightClickDemo"",""RightClickDemo"",""RightClickDemo"",""RightClickDemo"",""RightClickDemo""]",129.5,12.5,5246,space,0.157999992,1,0,1,0,1,0,48,0,48,0,1,47,,,,,,,,,,,,,,,,,,,,,,,,,,,,,,,,,,,,,,,,,,,,,,,,,,,,,,,,,,,
,,,,,,,,,,,,,,,,,,,,,liuchen-714,22,M,2020-07-16_16h42.59.976,AvatarManual,3.2.2,MacIntel,60,,,,,,,,,,,,,400,300,0,131,3.5,0,"[""stopped"",""stopped"",""stopped"",""stopped"",""stopped"",""stopped"",""stopped"",""stopped"",""stopped"",""stopped"",""stopped"",""stopped"",""stopped"",""stopped"",""stopped"",""stopped"",""stopped"",""right"",""right"",""right"",""right"",""right"",""stopped"",""stopped"",""stopped"",""right"",""right"",""right"",""right"",""right"",""stopped"",""stopped"",""stopped"",""right"",""right"",""right"",""stopped"",""stopped"",""right"",""right"",""right"",""stopped"",""stopped"",""stopped"",""stopped"",""right"",""right"",""right"",""right"",""right"",""right"",""right"",""stopped"",""stopped"",""stopped"",""right"",""right"",""right"",""right"",""right"",""stopped"",""stopped"",""stopped"",""stopped"",""right"",""right"",""right"",""right"",""right"",""right"",""stopped"",""stopped"",""stopped"",""stopped"",""right"",""right"",""right"",""right"",""right"",""stopped"",""stopped"",""stopped"",""stopped"",""right"",""right"",""right"",""right"",""right"",""right"",""stopped"",""stopped"",""stopped"",""stopped"",""right"",""right"",""right"",""right"",""stopped"",""stopped"",""stopped"",""right"",""right"",""right"",""right"",""stopped"",""stopped"",""stopped"",""stopped"",""stopped"",""stopped"",""stopped"",""right"",""right"",""right"",""right"",""stopped"",""stopped"",""stopped"",""stopped"",""stopped"",""stopped""]","[0,0,0,0,0,0,0,0,0,0,0,0,0,0,0,0,0,1,1,1,1,1,0,0,0,1,1,1,1,1,0,0,0,1,1,1,0,0,1,1,1,0,0,0,0,1,1,1,1,1,1,1,0,0,0,1,1,1,1,1,0,0,0,0,1,1,1,1,1,1,0,0,0,0,1,1,1,1,1,0,0,0,0,1,1,1,1,1,1,0,0,0,0,1,1,1,1,0,0,0,1,1,1,1,0,0,0,0,0,0,0,1,1,1,1,0,0,0,0,0,0]",284,"[41.15625,41.15625,41.15625,41.15625,41.15625,41.15625,41.15625,41.15625,41.15625,41.15625,41.15625,41.15625]","[-191.62548828125,-191.62548828125,-191.62548828125,-191.62548828125,-191.62548828125,-191.62548828125,-191.62548828125,-191.62548828125,-191.62548828125,-191.62548828125,-191.62548828125,-191.62548828125]","[1,1,1,1,1,1,1,1,1,1,1,1]","[0,0,0,0,0,0,0,0,0,0,0,0]","[0,0,0,0,0,0,0,0,0,0,0,0]","[2.634000062942505,2.7679998874664307,2.9159998893737793,3.0850000381469727,3.2289998531341553,3.384999990463257,3.5350000858306885,3.7019999027252197,3.8519999980926514,4.019000053405762,4.151000022888184,4.335999965667725]","[""RightClickDemo"",""RightClickDemo"",""RightClickDemo"",""RightClickDemo"",""RightClickDemo"",""RightClickDemo"",""RightClickDemo"",""RightClickDemo"",""RightClickDemo"",""RightClickDemo"",""RightClickDemo"",""RightClickDemo""]",199.5,100,6110,space,0.601999998,1,0,1,0,1,0,48,0,48,0,1,47,,,,,,,,,,,,,,,,,,,,,,,,,,,,,,,,,,,,,,,,,,,,,,,,,,,,,,,,,,,
,,,,,,,,,,,,,,,,,,,,,liuchen-714,22,M,2020-07-16_16h42.59.976,AvatarManual,3.2.2,MacIntel,60,,,,,,,,,,,,,200,100,0,101,3.5,1,"[""stopped"",""stopped"",""stopped"",""stopped"",""stopped"",""stopped"",""stopped"",""stopped"",""stopped"",""stopped"",""stopped"",""stopped"",""stopped"",""stopped"",""stopped"",""stopped"",""stopped"",""stopped"",""stopped"",""right"",""right"",""right"",""right"",""stopped"",""stopped"",""stopped"",""stopped"",""right"",""right"",""right"",""right"",""right"",""stopped"",""stopped"",""stopped"",""stopped"",""stopped"",""right"",""right"",""right"",""right"",""right"",""stopped"",""stopped"",""stopped"",""stopped"",""stopped"",""right"",""right"",""right"",""right"",""right"",""stopped"",""stopped"",""stopped"",""stopped"",""stopped"",""stopped"",""stopped"",""stopped"",""stopped"",""down"",""down"",""down"",""down"",""down"",""down"",""stopped"",""stopped"",""stopped"",""stopped"",""down"",""down"",""down"",""down"",""down"",""down"",""stopped"",""stopped"",""stopped"",""stopped"",""down"",""down"",""down"",""down"",""down"",""down"",""stopped"",""stopped"",""stopped"",""stopped"",""down"",""down""]","[0,0,0,0,0,0,0,0,0,0,0,0,0,0,0,0,0,0,0,1,1,1,1,0,0,0,0,1,1,1,1,1,0,0,0,0,0,1,1,1,1,1,0,0,0,0,0,1,1,1,1,1,0,0,0,0,0,0,0,0,0,1,1,1,1,1,1,0,0,0,0,1,1,1,1,1,1,0,0,0,0,1,1,1,1,1,1,0,0,0,0,1,1]",316,"[33.0408935546875,33.0408935546875,33.0408935546875,34.109130859375,6.5484619140625,-4.8460693359375,-4.8460693359375,-4.8460693359375]","[-203.50323486328125,-203.50323486328125,-203.50323486328125,-203.85931396484375,-230.76123046875,-244.292236328125,-244.292236328125,-243.9361572265625]","[1,1,1,1,1,1,1,1]","[0,0,0,0,0,0,0,0]","[0,0,0,0,0,0,0,0]","[1.9859998226165771,2.119999885559082,2.2860000133514404,2.4519999027252197,2.684999942779541,2.8519999980926514,3.0189998149871826,3.186999797821045]","[""RightClickDemo"",""RightClickDemo"",""RightClickDemo"",""RightClickDemo"",""DownClickDemo"",""DownClickDemo"",""DownClickDemo"",""DownClickDemo""]",66.5,30,5055,space,0.701000214,1,0,1,0,1,0,48,0,48,0,1,47,,,,,,,,,,,,,,,,,,,,,,,,,,,,,,,,,,,,,,,,,,,,,,,,,,,,,,,,,,,
,,,,,,,,,,,,,,,,,,,,,liuchen-714,22,M,2020-07-16_16h42.59.976,AvatarManual,3.2.2,MacIntel,60,,,,,,,,,,,,,300,-200,0,101,3.5,0,"[""stopped"",""stopped"",""stopped"",""left"",""left"",""left"",""left"",""stopped"",""stopped"",""stopped"",""stopped"",""stopped"",""left"",""left"",""left"",""left"",""left"",""stopped"",""stopped"",""stopped"",""stopped"",""left"",""left"",""left"",""left"",""left"",""left"",""stopped"",""stopped"",""stopped"",""left"",""left"",""left"",""left"",""left"",""left"",""stopped"",""stopped"",""stopped"",""stopped"",""left"",""left"",""left"",""left"",""left"",""stopped"",""stopped"",""stopped"",""stopped"",""stopped"",""left"",""left"",""left"",""left"",""left"",""stopped"",""stopped"",""stopped"",""stopped"",""stopped"",""left"",""left"",""left"",""left"",""stopped"",""stopped"",""stopped"",""stopped"",""left"",""left"",""left"",""left"",""left"",""stopped"",""stopped"",""stopped"",""stopped"",""left"",""left"",""left"",""left"",""left"",""left"",""stopped"",""stopped"",""stopped"",""stopped"",""stopped"",""stopped"",""stopped"",""stopped"",""down"",""down"",""down"",""down"",""down"",""stopped"",""stopped"",""stopped"",""stopped"",""down"",""down"",""down"",""down"",""down"",""stopped"",""stopped"",""stopped"",""stopped"",""stopped"",""down"",""down"",""down"",""down"",""down"",""stopped"",""stopped"",""stopped"",""stopped"",""down"",""down""]","[0,0,0,1,1,1,1,0,0,0,0,0,1,1,1,1,1,0,0,0,0,1,1,1,1,1,1,0,0,0,1,1,1,1,1,1,0,0,0,0,1,1,1,1,1,0,0,0,0,0,1,1,1,1,1,0,0,0,0,0,1,1,1,1,0,0,0,0,1,1,1,1,1,0,0,0,0,1,1,1,1,1,1,0,0,0,0,0,0,0,0,1,1,1,1,1,0,0,0,0,1,1,1,1,1,0,0,0,0,0,1,1,1,1,1,0,0,0,0,1,1]",50,"[-59.2623291015625,-59.2623291015625,-59.2623291015625,-59.2623291015625,-59.2623291015625,-57.1258544921875,-57.1258544921875,-57.1258544921875,-57.1258544921875,-16.056640625,-11.4276123046875,-10.0032958984375,-10.0032958984375]","[-201.3739013671875,-201.3739013671875,-201.3739013671875,-201.3739013671875,-201.3739013671875,-200.6617431640625,-200.6617431640625,-200.6617431640625,-200.6617431640625,-239.76165771484375,-241.18597412109375,-240.82989501953125,-240.82989501953125]","[1,1,1,1,1,1,1,1,1,1,1,1,1]","[0,0,0,0,0,0,0,0,0,0,0,0,0]","[0,0,0,0,0,0,0,0,0,0,0,0,0]","[1.7190001010894775,1.86899995803833,2.0190000534057617,2.1690001487731934,2.3359999656677246,2.509000062942505,2.677000045776367,2.811000108718872,2.9600000381469727,3.193000078201294,3.3440001010894775,3.509999990463257,3.6600000858306885]","[""LeftClickDemo"",""LeftClickDemo"",""LeftClickDemo"",""LeftClickDemo"",""LeftClickDemo"",""LeftClickDemo"",""LeftClickDemo"",""LeftClickDemo"",""LeftClickDemo"",""DownClickDemo"",""DownClickDemo"",""DownClickDemo"",""DownClickDemo""]",-161,40.5,5228,space,0.518000126,1,0,1,0,1,0,48,0,48,0,1,47,,,,,,,,,,,,,,,,,,,,,,,,,,,,,,,,,,,,,,,,,,,,,,,,,,,,,,,,,,,
,,,,,,,,,,,,,,,,,,,,,liuchen-714,22,M,2020-07-16_16h42.59.976,AvatarManual,3.2.2,MacIntel,60,,,,,,,,,,,,,500,-400,0,144,3.5,0,"[""stopped"",""stopped"",""stopped"",""stopped"",""stopped"",""stopped"",""stopped"",""stopped"",""stopped"",""stopped"",""stopped"",""stopped"",""stopped"",""stopped"",""stopped"",""left"",""left"",""left"",""left"",""left"",""stopped"",""stopped"",""stopped"",""stopped"",""left"",""left"",""left"",""left"",""left"",""stopped"",""stopped"",""left"",""left"",""left"",""left"",""stopped"",""stopped"",""stopped"",""stopped"",""stopped"",""left"",""left"",""left"",""left"",""left"",""stopped"",""stopped"",""stopped"",""stopped"",""left"",""left"",""left"",""left"",""left"",""left"",""stopped"",""stopped"",""stopped"",""stopped"",""left"",""left"",""left"",""left"",""left"",""stopped"",""stopped"",""stopped"",""stopped"",""left"",""left"",""left"",""left"",""stopped"",""stopped"",""stopped"",""stopped"",""left"",""left"",""left"",""left"",""left"",""left"",""stopped"",""stopped"",""stopped"",""stopped"",""left"",""left"",""left"",""left"",""left"",""stopped"",""stopped"",""stopped"",""left"",""left"",""left"",""left"",""left"",""left"",""left"",""stopped"",""stopped"",""stopped"",""stopped"",""left"",""left"",""left"",""left"",""stopped"",""stopped"",""stopped"",""stopped"",""stopped"",""stopped"",""left"",""left"",""left"",""left"",""left"",""left""]","[0,0,0,0,0,0,0,0,0,0,0,0,0,0,0,1,1,1,1,1,0,0,0,0,1,1,1,1,1,0,0,1,1,1,1,0,0,0,0,0,1,1,1,1,1,0,0,0,0,1,1,1,1,1,1,0,0,0,0,1,1,1,1,1,0,0,0,0,1,1,1,1,0,0,0,0,1,1,1,1,1,1,0,0,0,0,1,1,1,1,1,0,0,0,1,1,1,1,1,1,1,0,0,0,0,1,1,1,1,0,0,0,0,0,0,1,1,1,1,1,1]",250,"[-42.0504150390625,-39.9139404296875,-39.9139404296875,-39.9139404296875,-39.9139404296875,-39.9139404296875,-39.9139404296875,-39.9139404296875,-39.9139404296875,-39.9139404296875,-39.9139404296875,-39.9139404296875,-39.9139404296875]","[-194.53955078125,-193.115234375,-193.115234375,-193.115234375,-193.115234375,-193.115234375,-193.115234375,-193.115234375,-193.115234375,-193.115234375,-193.115234375,-193.115234375,-193.115234375]","[1,1,1,1,1,1,1,1,1,1,1,1,1]","[0,0,0,0,0,0,0,0,0,0,0,0,0]","[0,0,0,0,0,0,0,0,0,0,0,0,0]","[0.8859999179840088,4.755999803543091,4.9059998989105225,5.056999921798706,5.222999811172485,5.371999979019165,5.539999961853027,5.68999981880188,5.8399999141693115,6.006999969482422,6.139999866485596,6.323999881744385,6.490999937057495]","[""LeftClickDemo"",""LeftClickDemo"",""LeftClickDemo"",""LeftClickDemo"",""LeftClickDemo"",""LeftClickDemo"",""LeftClickDemo"",""LeftClickDemo"",""LeftClickDemo"",""LeftClickDemo"",""LeftClickDemo"",""LeftClickDemo"",""LeftClickDemo""]",-217,100,8817,space,1.205000162,1,0,1,0,1,0,48,0,48,0,1,47,,,,,,,,,,,,,,,,,,,,,,,,,,,,,,,,,,,,,,,,,,,,,,,,,,,,,,,,,,,
,,,,,,,,,,,,,,,,,,,,,liuchen-714,22,M,2020-07-16_16h42.59.976,AvatarManual,3.2.2,MacIntel,60,,,,,,,,,,,,,200,100,0,96,3.5,1,"[""stopped"",""stopped"",""stopped"",""stopped"",""stopped"",""stopped"",""stopped"",""stopped"",""stopped"",""stopped"",""stopped"",""stopped"",""stopped"",""stopped"",""stopped"",""stopped"",""stopped"",""stopped"",""stopped"",""stopped"",""stopped"",""stopped"",""right"",""right"",""right"",""right"",""right"",""right"",""stopped"",""stopped"",""stopped"",""stopped"",""right"",""right"",""right"",""right"",""right"",""stopped"",""stopped"",""stopped"",""stopped"",""right"",""right"",""right"",""right"",""right"",""stopped"",""stopped"",""stopped"",""stopped"",""right"",""right"",""right"",""right"",""right"",""right"",""stopped"",""stopped"",""stopped"",""stopped"",""stopped"",""right"",""right"",""right"",""right"",""stopped"",""stopped"",""stopped"",""stopped"",""stopped"",""stopped"",""stopped"",""down"",""down"",""down"",""down"",""down"",""down"",""stopped"",""stopped"",""stopped"",""stopped"",""down"",""down"",""down"",""down"",""down"",""stopped"",""stopped"",""stopped"",""stopped"",""stopped"",""down"",""down"",""down"",""down"",""down""]","[0,0,0,0,0,0,0,0,0,0,0,0,0,0,0,0,0,0,0,0,0,0,1,1,1,1,1,1,0,0,0,0,1,1,1,1,1,0,0,0,0,1,1,1,1,1,0,0,0,0,1,1,1,1,1,1,0,0,0,0,0,1,1,1,1,0,0,0,0,0,0,0,1,1,1,1,1,1,0,0,0,0,1,1,1,1,1,0,0,0,0,0,1,1,1,1,1]",368,"[30.58978271484375,32.01409912109375,32.01409912109375,29.52154541015625,29.87762451171875,-5.49853515625,-5.49853515625,-4.786376953125]","[-191.3348388671875,-192.0469970703125,-192.0469970703125,-195.251708984375,-195.251708984375,-240.78704833984375,-240.07489013671875,-237.93841552734375]","[1,1,1,1,1,1,1,1]","[0,0,0,0,0,0,0,0]","[0,0,0,0,0,0,0,0]","[1.9519999027252197,2.11899995803833,2.2690000534057617,2.4189999103546143,2.6040000915527344,2.7860000133514404,2.953000068664551,3.120000123977661]","[""RightClickDemo"",""RightClickDemo"",""RightClickDemo"",""RightClickDemo"",""RightClickDemo"",""DownClickDemo"",""DownClickDemo"",""DownClickDemo""]",91,44,6641,space,2.267000198,1,0,1,0,1,0,48,0,48,0,1,47,,,,,,,,,,,,,,,,,,,,,,,,,,,,,,,,,,,,,,,,,,,,,,,,,,,,,,,,,,,
,,,,,,,,,,,,,,,,,,,,,liuchen-714,22,M,2020-07-16_16h42.59.976,AvatarManual,3.2.2,MacIntel,60,,,,,,,,,,,,,300,200,0,140,3.5,0,"[""stopped"",""stopped"",""stopped"",""stopped"",""stopped"",""stopped"",""stopped"",""stopped"",""stopped"",""stopped"",""stopped"",""stopped"",""stopped"",""stopped"",""stopped"",""right"",""right"",""right"",""right"",""right"",""right"",""stopped"",""stopped"",""stopped"",""stopped"",""right"",""right"",""right"",""right"",""right"",""stopped"",""stopped"",""stopped"",""stopped"",""right"",""right"",""right"",""right"",""stopped"",""stopped"",""stopped"",""stopped"",""stopped"",""right"",""right"",""right"",""right"",""right"",""stopped"",""stopped"",""stopped"",""stopped"",""stopped"",""right"",""right"",""right"",""right"",""right"",""stopped"",""stopped"",""stopped"",""right"",""right"",""right"",""right"",""right"",""right"",""right"",""stopped"",""stopped"",""stopped"",""stopped"",""stopped"",""right"",""right"",""right"",""right"",""stopped"",""stopped"",""stopped"",""stopped"",""right"",""right"",""right"",""right"",""right"",""right"",""stopped"",""stopped"",""stopped"",""stopped"",""right"",""right"",""right"",""right"",""stopped"",""stopped"",""stopped"",""stopped"",""right"",""right"",""right"",""right"",""right"",""right"",""stopped"",""stopped"",""stopped"",""stopped"",""stopped"",""stopped"",""stopped"",""stopped"",""stopped"",""down"",""down"",""down"",""down"",""down"",""stopped"",""stopped""]","[0,0,0,0,0,0,0,0,0,0,0,0,0,0,0,1,1,1,1,1,1,0,0,0,0,1,1,1,1,1,0,0,0,0,1,1,1,1,0,0,0,0,0,1,1,1,1,1,0,0,0,0,0,1,1,1,1,1,0,0,0,1,1,1,1,1,1,1,0,0,0,0,0,1,1,1,1,0,0,0,0,1,1,1,1,1,1,0,0,0,0,1,1,1,1,0,0,0,0,1,1,1,1,1,1,0,0,0,0,0,0,0,0,0,1,1,1,1,1,0,0]",250,"[43.0738525390625,40.9373779296875,40.9373779296875,38.8009033203125,38.8009033203125,38.8009033203125,38.8009033203125,38.8009033203125,38.8009033203125,38.8009033203125,-9.366943359375]","[-205.89129638671875,-206.60345458984375,-206.60345458984375,-204.82305908203125,-204.82305908203125,-204.82305908203125,-204.82305908203125,-204.82305908203125,-204.82305908203125,-204.82305908203125,-234.7713623046875]","[1,1,1,1,1,1,1,1,1,1,1]","[0,0,0,0,0,0,0,0,0,0,0]","[0,0,0,0,0,0,0,0,0,0,0]","[2.7129998207092285,2.879999876022339,3.0309998989105225,3.180999994277954,3.3479998111724854,3.4809999465942383,3.679999828338623,3.81499981880188,3.9819998741149902,4.114999771118164,4.364999771118164]","[""RightClickDemo"",""RightClickDemo"",""RightClickDemo"",""RightClickDemo"",""RightClickDemo"",""RightClickDemo"",""RightClickDemo"",""RightClickDemo"",""RightClickDemo"",""RightClickDemo"",""DownClickDemo""]",182,82.5,6020,space,0.529999971,1,0,1,0,1,0,48,0,48,0,1,47,,,,,,,,,,,,,,,,,,,,,,,,,,,,,,,,,,,,,,,,,,,,,,,,,,,,,,,,,,,
,,,,,,,,,,,,,,,,,,,,,liuchen-714,22,M,2020-07-16_16h42.59.976,AvatarManual,3.2.2,MacIntel,60,,,,,,,,,,,,,500,400,0,90,3.5,0,"[""stopped"",""stopped"",""stopped"",""stopped"",""stopped"",""stopped"",""stopped"",""stopped"",""stopped"",""stopped"",""stopped"",""stopped"",""stopped"",""stopped"",""stopped"",""stopped"",""stopped"",""stopped"",""stopped"",""stopped"",""stopped"",""stopped"",""stopped"",""down"",""down"",""down"",""down"",""down"",""down"",""stopped"",""stopped"",""down"",""down"",""down"",""down"",""down"",""down"",""stopped"",""stopped"",""stopped"",""stopped"",""down"",""down"",""down"",""down"",""down"",""stopped"",""stopped"",""stopped"",""stopped"",""down"",""down"",""down"",""down"",""down"",""stopped"",""stopped"",""stopped"",""stopped"",""stopped"",""stopped"",""stopped"",""stopped"",""stopped"",""stopped"",""stopped"",""stopped"",""stopped"",""right"",""right"",""right"",""right"",""stopped"",""stopped"",""stopped"",""stopped"",""stopped"",""right"",""right"",""right"",""right"",""right"",""stopped"",""stopped"",""stopped"",""stopped"",""right"",""right"",""right"",""right"",""right"",""right"",""stopped"",""stopped"",""stopped"",""right"",""right"",""right"",""right"",""right"",""stopped"",""stopped"",""stopped"",""stopped"",""right"",""right"",""right"",""right"",""right"",""right"",""stopped"",""stopped"",""stopped"",""right"",""right"",""right"",""right"",""right"",""right"",""stopped"",""stopped""]","[0,0,0,0,0,0,0,0,0,0,0,0,0,0,0,0,0,0,0,0,0,0,0,1,1,1,1,1,1,0,0,1,1,1,1,1,1,0,0,0,0,1,1,1,1,1,0,0,0,0,1,1,1,1,1,0,0,0,0,0,0,0,0,0,0,0,0,0,1,1,1,1,0,0,0,0,0,1,1,1,1,1,0,0,0,0,1,1,1,1,1,1,0,0,0,1,1,1,1,1,0,0,0,0,1,1,1,1,1,1,0,0,0,1,1,1,1,1,1,0,0]",383,"[3.08990478515625,3.08990478515625,3.08990478515625,3.08990478515625,40.83447265625,40.83447265625,40.83447265625,41.546630859375,41.546630859375,41.546630859375]","[-227.65606689453125,-227.65606689453125,-227.65606689453125,-227.65606689453125,-196.67718505859375,-196.67718505859375,-196.67718505859375,-195.60894775390625,-195.60894775390625,-195.60894775390625]","[1,1,1,1,1,1,1,1,1,1]","[0,0,0,0,0,0,0,0,0,0]","[0,0,0,0,0,0,0,0,0,0]","[1.9950001239776611,2.128000020980835,2.2950000762939453,2.447000026702881,2.746000051498413,2.8970000743865967,3.0510001182556152,3.2039999961853027,3.3530001640319824,3.504000186920166]","[""DownClickDemo"",""DownClickDemo"",""DownClickDemo"",""DownClickDemo"",""RightClickDemo"",""RightClickDemo"",""RightClickDemo"",""RightClickDemo"",""RightClickDemo"",""RightClickDemo""]",112,23,4853,space,0.203999996,1,0,1,0,1,0,48,0,48,0,1,47,,,,,,,,,,,,,,,,,,,,,,,,,,,,,,,,,,,,,,,,,,,,,,,,,,,,,,,,,,,
,,,,,,,,,,,,,,,,,,,,,liuchen-714,22,M,2020-07-16_16h42.59.976,AvatarManual,3.2.2,MacIntel,60,,,,,,,,,,,,,500,-400,0,138,3.5,0,"[""stopped"",""stopped"",""stopped"",""stopped"",""stopped"",""stopped"",""stopped"",""stopped"",""stopped"",""stopped"",""stopped"",""stopped"",""down"",""down"",""down"",""down"",""down"",""stopped"",""stopped"",""stopped"",""stopped"",""down"",""down"",""down"",""down"",""down"",""stopped"",""stopped"",""stopped"",""stopped"",""down"",""down"",""down"",""down"",""down"",""stopped"",""stopped"",""stopped"",""stopped"",""down"",""down"",""down"",""down"",""down"",""down"",""down"",""stopped"",""stopped"",""stopped"",""down"",""down"",""down"",""down"",""down"",""stopped"",""stopped"",""stopped"",""stopped"",""stopped"",""stopped"",""stopped"",""stopped"",""left"",""left"",""left"",""left"",""left"",""left"",""stopped"",""stopped"",""stopped"",""stopped"",""left"",""left"",""left"",""left"",""left"",""left"",""stopped"",""stopped"",""stopped"",""left"",""left"",""left"",""left"",""left"",""left"",""stopped"",""stopped"",""stopped"",""stopped"",""left"",""left"",""left"",""left"",""left"",""stopped"",""stopped"",""stopped"",""stopped"",""stopped"",""left"",""left"",""left"",""left"",""left"",""stopped"",""stopped"",""stopped"",""stopped"",""left"",""left"",""left"",""left"",""left"",""stopped"",""stopped"",""stopped"",""stopped"",""left"",""left""]","[0,0,0,0,0,0,0,0,0,0,0,0,1,1,1,1,1,0,0,0,0,1,1,1,1,1,0,0,0,0,1,1,1,1,1,0,0,0,0,1,1,1,1,1,1,1,0,0,0,1,1,1,1,1,0,0,0,0,0,0,0,0,1,1,1,1,1,1,0,0,0,0,1,1,1,1,1,1,0,0,0,1,1,1,1,1,1,0,0,0,0,1,1,1,1,1,0,0,0,0,0,1,1,1,1,1,0,0,0,0,1,1,1,1,1,0,0,0,0,1,1]",200,"[-0.11468505859375,-0.11468505859375,-0.11468505859375,-0.11468505859375,-0.11468505859375,-46.8787841796875,-46.8787841796875,-46.8787841796875,-46.8787841796875,-46.8787841796875,-46.8787841796875,-46.8787841796875]","[-226.94390869140625,-226.94390869140625,-226.94390869140625,-226.94390869140625,-226.94390869140625,-198.1014404296875,-198.1014404296875,-198.1014404296875,-198.1014404296875,-198.1014404296875,-198.1014404296875,-198.1014404296875]","[1,1,1,1,1,1,1,1,1,1,1,1]","[0,0,0,0,0,0,0,0,0,0,0,0]","[0,0,0,0,0,0,0,0,0,0,0,0]","[2.4860000610351562,2.635999917984009,2.7860000133514404,2.934999942779541,3.1029999256134033,3.319999933242798,3.486999988555908,3.6369998455047607,3.805000066757202,3.9719998836517334,4.121999979019165,4.270999908447266]","[""DownClickDemo"",""DownClickDemo"",""DownClickDemo"",""DownClickDemo"",""DownClickDemo"",""LeftClickDemo"",""LeftClickDemo"",""LeftClickDemo"",""LeftClickDemo"",""LeftClickDemo"",""LeftClickDemo"",""LeftClickDemo""]",-122.5,5.5,5789,space,0.343999863,1,0,1,0,1,0,48,0,48,0,1,47,,,,,,,,,,,,,,,,,,,,,,,,,,,,,,,,,,,,,,,,,,,,,,,,,,,,,,,,,,,
,,,,,,,,,,,,,,,,,,,,,liuchen-714,22,M,2020-07-16_16h42.59.976,AvatarManual,3.2.2,MacIntel,60,,,,,,,,,,,,,500,-400,0,80,3.5,0,"[""stopped"",""stopped"",""stopped"",""stopped"",""stopped"",""stopped"",""stopped"",""stopped"",""stopped"",""stopped"",""stopped"",""stopped"",""stopped"",""stopped"",""stopped"",""stopped"",""stopped"",""stopped"",""stopped"",""stopped"",""stopped"",""stopped"",""left"",""left"",""left"",""left"",""left"",""stopped"",""stopped"",""stopped"",""stopped"",""left"",""left"",""left"",""left"",""left"",""stopped"",""stopped"",""stopped"",""stopped"",""left"",""left"",""left"",""left"",""left"",""left"",""stopped"",""stopped"",""stopped"",""stopped"",""left"",""left"",""left"",""left"",""left"",""left"",""stopped"",""stopped"",""stopped"",""left"",""left"",""left"",""left"",""left"",""stopped"",""stopped"",""stopped"",""stopped"",""stopped"",""left"",""left"",""left"",""left"",""stopped"",""stopped"",""stopped"",""stopped"",""left"",""left"",""left"",""left"",""left"",""left"",""stopped"",""stopped"",""stopped"",""left"",""left"",""left"",""left"",""stopped"",""stopped"",""stopped"",""left"",""left"",""left"",""left"",""left"",""left"",""left"",""left"",""stopped"",""stopped"",""stopped"",""stopped"",""left"",""left"",""left"",""stopped"",""stopped"",""stopped"",""stopped"",""stopped"",""stopped"",""stopped"",""left"",""left"",""stopped"",""stopped"",""left"",""left""]","[0,0,0,0,0,0,0,0,0,0,0,0,0,0,0,0,0,0,0,0,0,0,1,1,1,1,1,0,0,0,0,1,1,1,1,1,0,0,0,0,1,1,1,1,1,1,0,0,0,0,1,1,1,1,1,1,0,0,0,1,1,1,1,1,0,0,0,0,0,1,1,1,1,0,0,0,0,1,1,1,1,1,1,0,0,0,1,1,1,1,0,0,0,1,1,1,1,1,1,1,1,0,0,0,0,1,1,1,0,0,0,0,0,0,0,1,1,0,0,1,1]",368,"[-43.5283203125,-43.5283203125,-43.5283203125,-43.5283203125,-43.1722412109375,-41.7479248046875,-41.7479248046875,-41.7479248046875,-41.7479248046875,-41.7479248046875,-41.7479248046875,-41.7479248046875]","[-185.638671875,-185.638671875,-185.638671875,-185.638671875,-185.638671875,-184.926513671875,-184.926513671875,-184.926513671875,-184.926513671875,-184.926513671875,-184.926513671875,-184.926513671875]","[1,1,1,1,1,1,1,1,1,1,1,1]","[0,0,0,0,0,0,0,0,0,0,0,0]","[0,0,0,0,0,0,0,0,0,0,0,0]","[1.696000099182129,1.8510000705718994,2,2.1619999408721924,2.3289999961853027,2.496000051498413,2.628999948501587,2.7790000438690186,2.9000000953674316,3.0999999046325684,3.2639999389648438,3.384999990463257]","[""LeftClickDemo"",""LeftClickDemo"",""LeftClickDemo"",""LeftClickDemo"",""LeftClickDemo"",""LeftClickDemo"",""LeftClickDemo"",""LeftClickDemo"",""LeftClickDemo"",""LeftClickDemo"",""LeftClickDemo"",""LeftClickDemo""]",-196,100,4430,space,0.007999897,1,0,1,0,1,0,48,0,48,0,1,47,,,,,,,,,,,,,,,,,,,,,,,,,,,,,,,,,,,,,,,,,,,,,,,,,,,,,,,,,,,
,,,,,,,,,,,,,,,,,,,,,liuchen-714,22,M,2020-07-16_16h42.59.976,AvatarManual,3.2.2,MacIntel,60,,,,,,,,,,,,,500,400,0,65,3.5,0,"[""stopped"",""stopped"",""stopped"",""stopped"",""stopped"",""stopped"",""stopped"",""stopped"",""stopped"",""stopped"",""stopped"",""stopped"",""stopped"",""stopped"",""stopped"",""stopped"",""stopped"",""stopped"",""stopped"",""stopped"",""stopped"",""stopped"",""stopped"",""stopped"",""right"",""right"",""right"",""right"",""right"",""stopped"",""stopped"",""stopped"",""stopped"",""right"",""right"",""right"",""right"",""right"",""stopped"",""stopped"",""stopped"",""stopped"",""stopped"",""right"",""right"",""right"",""right"",""right"",""stopped"",""stopped"",""stopped"",""stopped"",""right"",""right"",""right"",""right"",""right"",""right"",""stopped"",""stopped"",""stopped"",""stopped"",""right"",""right"",""right"",""right"",""right"",""stopped"",""stopped"",""stopped"",""stopped"",""right"",""right"",""right"",""right"",""right"",""stopped"",""stopped"",""stopped"",""stopped"",""right"",""right"",""right"",""right"",""right"",""stopped"",""stopped"",""stopped"",""stopped"",""right"",""right"",""right"",""right"",""stopped"",""stopped"",""stopped"",""stopped"",""stopped"",""stopped"",""right"",""right"",""right"",""right"",""stopped"",""stopped"",""stopped"",""stopped"",""stopped"",""right"",""right"",""right"",""right"",""right"",""right"",""stopped"",""stopped"",""stopped"",""stopped"",""right"",""right"",""right""]","[0,0,0,0,0,0,0,0,0,0,0,0,0,0,0,0,0,0,0,0,0,0,0,0,1,1,1,1,1,0,0,0,0,1,1,1,1,1,0,0,0,0,0,1,1,1,1,1,0,0,0,0,1,1,1,1,1,1,0,0,0,0,1,1,1,1,1,0,0,0,0,1,1,1,1,1,0,0,0,0,1,1,1,1,1,0,0,0,0,1,1,1,1,0,0,0,0,0,0,1,1,1,1,0,0,0,0,0,1,1,1,1,1,1,0,0,0,0,1,1,1]",401,"[38.3699951171875,38.3699951171875,38.3699951171875,38.3699951171875,38.3699951171875,38.3699951171875,38.3699951171875,38.3699951171875,38.3699951171875,38.3699951171875,38.3699951171875]","[-190.623779296875,-190.623779296875,-190.623779296875,-190.623779296875,-190.623779296875,-190.623779296875,-190.623779296875,-190.623779296875,-190.623779296875,-190.623779296875,-190.623779296875]","[1,1,1,1,1,1,1,1,1,1,1]","[0,0,0,0,0,0,0,0,0,0,0]","[0,0,0,0,0,0,0,0,0,0,0]","[1.4690001010894775,1.6180000305175781,1.7850000858306885,1.937000036239624,2.1030001640319824,2.253000020980835,2.4030001163482666,2.552999973297119,2.7200000286102295,2.870000123977661,3.0369999408721924]","[""RightClickDemo"",""RightClickDemo"",""RightClickDemo"",""RightClickDemo"",""RightClickDemo"",""RightClickDemo"",""RightClickDemo"",""RightClickDemo"",""RightClickDemo"",""RightClickDemo"",""RightClickDemo""]",185.5,100,4770,space,0.520999908,1,0,1,0,1,0,48,0,48,0,1,47,,,,,,,,,,,,,,,,,,,,,,,,,,,,,,,,,,,,,,,,,,,,,,,,,,,,,,,,,,,
,,,,,,,,,,,,,,,,,,,,,liuchen-714,22,M,2020-07-16_16h42.59.976,AvatarManual,3.2.2,MacIntel,60,,,,,,,,,,,,,400,-300,0,84,3.5,0,"[""stopped"",""stopped"",""stopped"",""stopped"",""stopped"",""stopped"",""stopped"",""stopped"",""stopped"",""stopped"",""stopped"",""stopped"",""stopped"",""stopped"",""stopped"",""stopped"",""stopped"",""stopped"",""stopped"",""stopped"",""stopped"",""left"",""left"",""left"",""left"",""left"",""stopped"",""stopped"",""stopped"",""stopped"",""left"",""left"",""left"",""left"",""left"",""stopped"",""stopped"",""stopped"",""stopped"",""left"",""left"",""left"",""left"",""left"",""left"",""stopped"",""stopped"",""stopped"",""stopped"",""stopped"",""left"",""left"",""left"",""left"",""left"",""stopped"",""stopped"",""stopped"",""stopped"",""stopped"",""left"",""left"",""left"",""left"",""left"",""stopped"",""stopped"",""stopped"",""stopped"",""left"",""left"",""left"",""left"",""left"",""left"",""stopped"",""stopped"",""stopped"",""stopped"",""left"",""left"",""left"",""left"",""left"",""stopped"",""stopped"",""stopped"",""stopped"",""stopped"",""left"",""left"",""left"",""left"",""left"",""stopped"",""stopped"",""stopped"",""stopped"",""left"",""left"",""left"",""left"",""left"",""left"",""stopped"",""stopped"",""stopped"",""stopped"",""left"",""left"",""left"",""left"",""left"",""stopped"",""stopped"",""stopped"",""stopped"",""left"",""left"",""left"",""left""]","[0,0,0,0,0,0,0,0,0,0,0,0,0,0,0,0,0,0,0,0,0,1,1,1,1,1,0,0,0,0,1,1,1,1,1,0,0,0,0,1,1,1,1,1,1,0,0,0,0,0,1,1,1,1,1,0,0,0,0,0,1,1,1,1,1,0,0,0,0,1,1,1,1,1,1,0,0,0,0,1,1,1,1,1,0,0,0,0,0,1,1,1,1,1,0,0,0,0,1,1,1,1,1,1,0,0,0,0,1,1,1,1,1,0,0,0,0,1,1,1,1]",346,"[-42.0396728515625,-42.0396728515625,-42.0396728515625,-42.0396728515625,-42.0396728515625,-42.0396728515625,-42.0396728515625,-42.0396728515625,-42.0396728515625,-42.0396728515625,-42.0396728515625]","[-194.562255859375,-194.562255859375,-194.562255859375,-194.562255859375,-194.562255859375,-194.562255859375,-194.562255859375,-194.562255859375,-194.562255859375,-194.562255859375,-194.562255859375]","[1,1,1,1,1,1,1,1,1,1,1]","[0,0,0,0,0,0,0,0,0,0,0]","[0,0,0,0,0,0,0,0,0,0,0]","[1.7409999370574951,1.8910000324249268,2.0460000038146973,2.2249999046325684,2.3910000324249268,2.5429999828338623,2.7079999446868896,2.875,3.0279998779296875,3.192999839782715,3.3429999351501465]","[""LeftClickDemo"",""LeftClickDemo"",""LeftClickDemo"",""LeftClickDemo"",""LeftClickDemo"",""LeftClickDemo"",""LeftClickDemo"",""LeftClickDemo"",""LeftClickDemo"",""LeftClickDemo"",""LeftClickDemo""]",-199.5,100,5193,space,0.773000002,1,0,1,0,1,0,48,0,48,0,1,47,,,,,,,,,,,,,,,,,,,,,,,,,,,,,,,,,,,,,,,,,,,,,,,,,,,,,,,,,,,
,,,,,,,,,,,,,,,,,,,,,liuchen-714,22,M,2020-07-16_16h42.59.976,AvatarManual,3.2.2,MacIntel,60,,,,,,,,,,,,,300,-200,0,118,3.5,0,"[""stopped"",""stopped"",""stopped"",""stopped"",""stopped"",""stopped"",""stopped"",""stopped"",""stopped"",""stopped"",""stopped"",""stopped"",""stopped"",""stopped"",""stopped"",""stopped"",""stopped"",""stopped"",""stopped"",""stopped"",""stopped"",""stopped"",""stopped"",""stopped"",""stopped"",""stopped"",""stopped"",""stopped"",""stopped"",""stopped"",""stopped"",""stopped"",""stopped"",""stopped"",""stopped"",""stopped"",""stopped"",""stopped"",""stopped"",""stopped"",""stopped"",""stopped"",""stopped"",""stopped"",""stopped"",""left"",""left"",""left"",""left"",""left"",""stopped"",""stopped"",""stopped"",""stopped"",""left"",""left"",""left"",""left"",""left"",""stopped"",""stopped"",""stopped"",""stopped"",""left"",""left"",""left"",""left"",""left"",""left"",""stopped"",""stopped"",""stopped"",""stopped"",""left"",""left"",""left"",""left"",""left"",""stopped"",""stopped"",""stopped"",""stopped"",""left"",""left"",""left"",""left"",""left"",""left"",""stopped"",""stopped"",""stopped"",""stopped"",""left"",""left"",""left"",""left"",""left"",""stopped"",""stopped"",""stopped"",""left"",""left"",""left"",""left"",""left"",""left"",""stopped"",""stopped"",""left"",""left"",""left"",""left"",""left"",""stopped"",""stopped"",""stopped"",""stopped"",""stopped"",""stopped"",""stopped"",""stopped""]","[0,0,0,0,0,0,0,0,0,0,0,0,0,0,0,0,0,0,0,0,0,0,0,0,0,0,0,0,0,0,0,0,0,0,0,0,0,0,0,0,0,0,0,0,0,1,1,1,1,1,0,0,0,0,1,1,1,1,1,0,0,0,0,1,1,1,1,1,1,0,0,0,0,1,1,1,1,1,0,0,0,0,1,1,1,1,1,1,0,0,0,0,1,1,1,1,1,0,0,0,1,1,1,1,1,1,0,0,1,1,1,1,1,0,0,0,0,0,0,0,0]",885,"[-43.820068359375,-43.820068359375,-43.820068359375,-43.820068359375,-43.820068359375,-43.820068359375,-43.820068359375,-43.820068359375]","[-199.9034423828125,-199.9034423828125,-199.9034423828125,-199.9034423828125,-199.9034423828125,-199.9034423828125,-199.9034423828125,-199.9034423828125]","[1,1,1,1,1,1,1,1]","[0,0,0,0,0,0,0,0]","[0,0,0,0,0,0,0,0]","[2.8380000591278076,2.98799991607666,3.138000011444092,3.305000066757202,3.4560000896453857,3.621000051498413,3.753999948501587,3.8889999389648438]","[""LeftClickDemo"",""LeftClickDemo"",""LeftClickDemo"",""LeftClickDemo"",""LeftClickDemo"",""LeftClickDemo"",""LeftClickDemo"",""LeftClickDemo""]",-150.5,100,6113,space,1.000999928,1,0,1,0,1,0,48,0,48,0,1,47,,,,,,,,,,,,,,,,,,,,,,,,,,,,,,,,,,,,,,,,,,,,,,,,,,,,,,,,,,,
,,,,,,,,,,,,,,,,,,,,,liuchen-714,22,M,2020-07-16_16h42.59.976,AvatarManual,3.2.2,MacIntel,60,,,,,,,,,,,,,500,-400,0,63,3.5,0,"[""stopped"",""stopped"",""stopped"",""stopped"",""stopped"",""stopped"",""stopped"",""stopped"",""stopped"",""stopped"",""stopped"",""stopped"",""stopped"",""stopped"",""stopped"",""stopped"",""stopped"",""stopped"",""stopped"",""stopped"",""stopped"",""stopped"",""stopped"",""left"",""left"",""left"",""left"",""left"",""stopped"",""stopped"",""stopped"",""stopped"",""left"",""left"",""left"",""left"",""left"",""left"",""stopped"",""stopped"",""stopped"",""stopped"",""left"",""left"",""left"",""left"",""left"",""stopped"",""stopped"",""stopped"",""left"",""left"",""left"",""left"",""stopped"",""stopped"",""stopped"",""stopped"",""stopped"",""left"",""left"",""left"",""left"",""left"",""left"",""stopped"",""stopped"",""stopped"",""stopped"",""left"",""left"",""left"",""left"",""stopped"",""stopped"",""stopped"",""stopped"",""stopped"",""left"",""left"",""left"",""left"",""left"",""stopped"",""stopped"",""stopped"",""left"",""left"",""left"",""left"",""left"",""left"",""left"",""stopped"",""stopped"",""stopped"",""left"",""left"",""left"",""left"",""left"",""stopped"",""stopped"",""stopped"",""stopped"",""left"",""left"",""left"",""left"",""left"",""left"",""stopped"",""stopped"",""stopped"",""left"",""left"",""left"",""left"",""left"",""left"",""stopped""]","[0,0,0,0,0,0,0,0,0,0,0,0,0,0,0,0,0,0,0,0,0,0,0,1,1,1,1,1,0,0,0,0,1,1,1,1,1,1,0,0,0,0,1,1,1,1,1,0,0,0,1,1,1,1,0,0,0,0,0,1,1,1,1,1,1,0,0,0,0,1,1,1,1,0,0,0,0,0,1,1,1,1,1,0,0,0,1,1,1,1,1,1,1,0,0,0,1,1,1,1,1,0,0,0,0,1,1,1,1,1,1,0,0,0,1,1,1,1,1,1,0]",386,"[-44.19781494140625,-46.33428955078125,-46.33428955078125,-48.11468505859375,-48.47076416015625,-48.47076416015625,-48.47076416015625,-48.47076416015625,-48.47076416015625,-47.04644775390625,-43.12957763671875]","[-196.84478759765625,-196.84478759765625,-196.84478759765625,-196.48870849609375,-196.48870849609375,-196.48870849609375,-196.48870849609375,-196.48870849609375,-196.48870849609375,-196.48870849609375,-196.13262939453125]","[1,1,1,1,1,1,1,1,1,1,1]","[0,0,0,0,0,0,0,0,0,0,0]","[0,0,0,0,0,0,0,0,0,0,0]","[1.436999797821045,1.5859999656677246,1.753000020980835,1.9189999103546143,2.069000005722046,2.236999988555908,2.4039998054504395,2.5379998683929443,2.7049999237060547,2.8529999256134033,3.003999948501587]","[""LeftClickDemo"",""LeftClickDemo"",""LeftClickDemo"",""LeftClickDemo"",""LeftClickDemo"",""LeftClickDemo"",""LeftClickDemo"",""LeftClickDemo"",""LeftClickDemo"",""LeftClickDemo"",""LeftClickDemo""]",-206.5,100,5656,space,1.521999836,1,0,1,0,1,0,48,0,48,0,1,47,,,,,,,,,,,,,,,,,,,,,,,,,,,,,,,,,,,,,,,,,,,,,,,,,,,,,,,,,,,
,,,,,,,,,,,,,,,,,,,,,liuchen-714,22,M,2020-07-16_16h42.59.976,AvatarManual,3.2.2,MacIntel,60,,,,,,,,,,,,,200,100,0,65,3.5,0,"[""stopped"",""stopped"",""stopped"",""stopped"",""stopped"",""stopped"",""stopped"",""stopped"",""stopped"",""stopped"",""stopped"",""stopped"",""stopped"",""stopped"",""stopped"",""stopped"",""stopped"",""stopped"",""stopped"",""stopped"",""stopped"",""stopped"",""stopped"",""stopped"",""stopped"",""stopped"",""stopped"",""stopped"",""stopped"",""stopped"",""stopped"",""stopped"",""stopped"",""stopped"",""stopped"",""stopped"",""stopped"",""stopped"",""stopped"",""stopped"",""stopped"",""stopped"",""stopped"",""stopped"",""stopped"",""stopped"",""stopped"",""stopped"",""stopped"",""stopped"",""stopped"",""stopped"",""stopped"",""stopped"",""stopped"",""down"",""down"",""down"",""down"",""down"",""down"",""stopped"",""stopped"",""stopped"",""down"",""down"",""down"",""down"",""down"",""down"",""stopped"",""stopped"",""stopped"",""down"",""down"",""down"",""down"",""down"",""down"",""stopped"",""stopped"",""stopped"",""down"",""down"",""down"",""down"",""down"",""down"",""stopped"",""stopped"",""stopped"",""stopped"",""stopped"",""stopped"",""stopped"",""stopped"",""right"",""right"",""right"",""right"",""right"",""right"",""right"",""stopped"",""stopped"",""stopped"",""right"",""right"",""right"",""right"",""stopped"",""stopped"",""stopped"",""stopped"",""right"",""right"",""right"",""right"",""stopped"",""stopped"",""stopped""]","[0,0,0,0,0,0,0,0,0,0,0,0,0,0,0,0,0,0,0,0,0,0,0,0,0,0,0,0,0,0,0,0,0,0,0,0,0,0,0,0,0,0,0,0,0,0,0,0,0,0,0,0,0,0,0,1,1,1,1,1,1,0,0,0,1,1,1,1,1,1,0,0,0,1,1,1,1,1,1,0,0,0,1,1,1,1,1,1,0,0,0,0,0,0,0,0,1,1,1,1,1,1,1,0,0,0,1,1,1,1,0,0,0,0,1,1,1,1,0,0,0]",945,"[1.3804931640625,7.07769775390625,6.72161865234375,6.72161865234375,6.36553955078125,6.36553955078125,6.36553955078125,6.72161865234375,7.07769775390625,56.5401611328125,56.896240234375,56.896240234375,56.896240234375,56.896240234375,56.896240234375]","[-214.64874267578125,-240.642822265625,-240.642822265625,-240.642822265625,-240.642822265625,-240.642822265625,-240.642822265625,-239.9306640625,-239.5745849609375,-203.993896484375,-202.2135009765625,-202.2135009765625,-202.2135009765625,-202.2135009765625,-202.2135009765625]","[0,1,0,1,0,1,0,1,0,1,0,1,0,1,0]","[0,0,0,0,0,0,0,0,0,0,0,0,0,0,0]","[1,1,1,1,1,1,1,1,1,1,1,1,1,1,1]","[0.935999870300293,2.0160000324249268,2.110999822616577,2.1610000133514404,2.259999990463257,2.310999870300293,2.4110000133514404,2.4600000381469727,2.56499981880188,2.694999933242798,2.810999870300293,2.8959999084472656,2.9600000381469727,3.0290000438690186,3.1369998455047607]","[""DownClickDemo"",""DownClickDemo"",""DownClickDemo"",""DownClickDemo"",""DownClickDemo"",""DownClickDemo"",""DownClickDemo"",""DownClickDemo"",""RightClickDemo"",""RightClickDemo"",""RightClickDemo"",""RightClickDemo"",""RightClickDemo"",""RightClickDemo""]",52.5,16,4481,space,0.28399992,1,0,1,0,1,0,48,0,48,0,1,47,,,,,,,,,,,,,,,,,,,,,,,,,,,,,,,,,,,,,,,,,,,,,,,,,,,,,,,,,,,
,,,,,,,,,,,,,,,,,,,,,liuchen-714,22,M,2020-07-16_16h42.59.976,AvatarManual,3.2.2,MacIntel,60,,,,,,,,,,,,,300,-200,0,122,3.5,0,"[""stopped"",""stopped"",""stopped"",""stopped"",""stopped"",""stopped"",""stopped"",""stopped"",""stopped"",""stopped"",""stopped"",""stopped"",""stopped"",""stopped"",""stopped"",""left"",""left"",""left"",""left"",""left"",""left"",""stopped"",""stopped"",""stopped"",""stopped"",""left"",""left"",""left"",""left"",""left"",""stopped"",""stopped"",""stopped"",""left"",""left"",""left"",""left"",""left"",""left"",""left"",""stopped"",""stopped"",""stopped"",""stopped"",""left"",""left"",""left"",""left"",""left"",""left"",""left"",""left"",""stopped"",""stopped"",""left"",""left"",""left"",""left"",""left"",""stopped"",""stopped"",""stopped"",""stopped"",""stopped"",""left"",""left"",""left"",""left"",""left"",""stopped"",""stopped"",""stopped"",""stopped"",""left"",""left"",""left"",""left"",""left"",""left"",""stopped"",""stopped"",""stopped"",""stopped"",""stopped"",""stopped"",""stopped"",""down"",""down"",""down"",""down"",""down"",""down"",""stopped"",""stopped"",""stopped"",""down"",""down"",""down"",""down"",""down"",""down"",""stopped"",""stopped"",""stopped"",""stopped"",""down"",""down"",""down"",""down"",""down"",""stopped"",""stopped"",""stopped"",""stopped"",""down"",""down"",""down"",""down"",""down"",""stopped"",""stopped""]","[0,0,0,0,0,0,0,0,0,0,0,0,0,0,0,1,1,1,1,1,1,0,0,0,0,1,1,1,1,1,0,0,0,1,1,1,1,1,1,1,0,0,0,0,1,1,1,1,1,1,1,1,0,0,1,1,1,1,1,0,0,0,0,0,1,1,1,1,1,0,0,0,0,1,1,1,1,1,1,0,0,0,0,0,0,0,1,1,1,1,1,1,0,0,0,1,1,1,1,1,1,0,0,0,0,1,1,1,1,1,0,0,0,0,1,1,1,1,1,0,0]",250,"[-2.7147216796875,-47.58074951171875,-47.58074951171875,-47.58074951171875,-47.58074951171875,-47.58074951171875,-47.58074951171875,-43.66387939453125,-43.66387939453125,-43.66387939453125,-43.66387939453125,-43.66387939453125,-43.66387939453125,-43.66387939453125,-34.04974365234375,-7.69989013671875,7.61151123046875,7.96759033203125,7.96759033203125,6.54327392578125,6.54327392578125,0.48992919921875,-5.56341552734375]","[-193.144287109375,-193.8564453125,-193.8564453125,-193.8564453125,-193.8564453125,-193.8564453125,-193.8564453125,-193.144287109375,-193.144287109375,-193.144287109375,-193.144287109375,-193.144287109375,-193.144287109375,-193.144287109375,-202.7584228515625,-233.7373046875,-244.0635986328125,-244.0635986328125,-243.70751953125,-241.2149658203125,-241.2149658203125,-237.6541748046875,-236.9420166015625]","[0,1,0,1,0,1,0,1,0,1,0,1,0,1,0,1,0,1,0,1,0,1,0]","[0,0,0,0,0,0,0,0,0,0,0,0,0,0,0,0,0,0,0,0,0,0,0]","[1,1,1,1,1,1,1,1,1,1,1,1,1,1,1,1,1,1,1,1,1,1,1]","[0.0839998722076416,2.3529999256134033,2.4519999027252197,2.5199999809265137,2.6019999980926514,2.6529998779296875,2.7679998874664307,2.8369998931884766,2.9689998626708984,3.003000020980835,3.0859999656677246,3.169999837875366,3.253000020980835,3.319000005722046,3.419999837875366,3.5360000133514404,3.635999917984009,3.687000036239624,3.7860000133514404,3.8539998531341553,3.937000036239624,4.004999876022339,4.086999893188477]","[""LeftClickDemo"",""LeftClickDemo"",""LeftClickDemo"",""LeftClickDemo"",""LeftClickDemo"",""LeftClickDemo"",""LeftClickDemo"",""LeftClickDemo"",""LeftClickDemo"",""LeftClickDemo"",""LeftClickDemo"",""LeftClickDemo"",""LeftClickDemo"",""LeftClickDemo"",""DownClickDemo"",""DownClickDemo"",""DownClickDemo"",""DownClickDemo"",""DownClickDemo"",""DownClickDemo"",""DownClickDemo"",""DownClickDemo""]",-147,23,6208,space,0.937000036,1,0,1,0,1,0,48,0,48,0,1,47,,,,,,,,,,,,,,,,,,,,,,,,,,,,,,,,,,,,,,,,,,,,,,,,,,,,,,,,,,,
,,,,,,,,,,,,,,,,,,,,,liuchen-714,22,M,2020-07-16_16h42.59.976,AvatarManual,3.2.2,MacIntel,60,,,,,,,,,,,,,400,300,0,135,3.5,0,"[""stopped"",""stopped"",""stopped"",""stopped"",""stopped"",""stopped"",""stopped"",""stopped"",""stopped"",""stopped"",""stopped"",""stopped"",""stopped"",""stopped"",""stopped"",""right"",""right"",""right"",""right"",""stopped"",""stopped"",""stopped"",""stopped"",""right"",""right"",""right"",""right"",""right"",""right"",""stopped"",""stopped"",""stopped"",""stopped"",""right"",""right"",""right"",""right"",""right"",""stopped"",""stopped"",""stopped"",""stopped"",""stopped"",""right"",""right"",""right"",""right"",""right"",""stopped"",""stopped"",""stopped"",""stopped"",""right"",""right"",""right"",""right"",""right"",""stopped"",""stopped"",""stopped"",""stopped"",""stopped"",""right"",""right"",""right"",""right"",""right"",""stopped"",""stopped"",""stopped"",""stopped"",""right"",""right"",""right"",""right"",""stopped"",""stopped"",""stopped"",""stopped"",""right"",""right"",""right"",""right"",""right"",""right"",""stopped"",""stopped"",""stopped"",""stopped"",""right"",""right"",""right"",""right"",""right"",""stopped"",""stopped"",""stopped"",""stopped"",""right"",""right"",""right"",""right"",""stopped"",""stopped"",""stopped"",""stopped"",""stopped"",""stopped"",""right"",""right"",""right"",""right"",""right"",""right"",""stopped"",""stopped"",""stopped"",""stopped"",""right"",""right"",""right""]","[0,0,0,0,0,0,0,0,0,0,0,0,0,0,0,1,1,1,1,0,0,0,0,1,1,1,1,1,1,0,0,0,0,1,1,1,1,1,0,0,0,0,0,1,1,1,1,1,0,0,0,0,1,1,1,1,1,0,0,0,0,0,1,1,1,1,1,0,0,0,0,1,1,1,1,0,0,0,0,1,1,1,1,1,1,0,0,0,0,1,1,1,1,1,0,0,0,0,1,1,1,1,0,0,0,0,0,0,1,1,1,1,1,1,0,0,0,0,1,1,1]",251,"[-0.22235107421875,38.59027099609375,38.59027099609375,38.59027099609375,38.59027099609375,38.59027099609375,38.59027099609375,38.94635009765625,38.94635009765625,38.94635009765625,38.94635009765625,38.94635009765625,38.94635009765625,38.94635009765625,38.94635009765625,38.94635009765625,38.94635009765625,38.94635009765625,38.94635009765625,38.94635009765625,38.94635009765625,38.94635009765625,38.94635009765625,38.94635009765625]","[-182.10577392578125,-185.66656494140625,-185.66656494140625,-185.66656494140625,-185.66656494140625,-185.66656494140625,-186.73480224609375,-187.80303955078125,-187.80303955078125,-187.80303955078125,-187.80303955078125,-187.80303955078125,-187.80303955078125,-187.80303955078125,-187.80303955078125,-187.80303955078125,-187.80303955078125,-187.80303955078125,-187.80303955078125,-187.80303955078125,-187.80303955078125,-187.80303955078125,-187.80303955078125,-187.80303955078125]","[0,1,0,1,0,1,0,1,0,1,0,1,0,1,0,1,0,1,0,1,0,1,0,1]","[0,0,0,0,0,0,0,0,0,0,0,0,0,0,0,0,0,0,0,0,0,0,0,0]","[1,1,1,1,1,1,1,1,1,1,1,1,1,1,1,1,1,1,1,1,1,1,1,1]","[0.09999990463256836,2.501999855041504,2.567999839782715,2.633999824523926,2.734999895095825,2.801999807357788,2.883999824523926,2.9699997901916504,3.050999879837036,3.11899995803833,3.2009999752044678,3.2860000133514404,3.367999792098999,3.435999870300293,3.501999855041504,3.569000005722046,3.6679999828338623,3.735999822616577,3.819000005722046,3.8869998455047607,3.9519999027252197,4.052999973297119,4.1519999504089355,4.21999979019165]","[""RightClickDemo"",""RightClickDemo"",""RightClickDemo"",""RightClickDemo"",""RightClickDemo"",""RightClickDemo"",""RightClickDemo"",""RightClickDemo"",""RightClickDemo"",""RightClickDemo"",""RightClickDemo"",""RightClickDemo"",""RightClickDemo"",""RightClickDemo"",""RightClickDemo"",""RightClickDemo"",""RightClickDemo"",""RightClickDemo"",""RightClickDemo"",""RightClickDemo"",""RightClickDemo"",""RightClickDemo"",""RightClickDemo""]",203,100,5821,space,0.535000086,1,0,1,0,1,0,48,0,48,0,1,47,,,,,,,,,,,,,,,,,,,,,,,,,,,,,,,,,,,,,,,,,,,,,,,,,,,,,,,,,,,
,,,,,,,,,,,,,,,,,,,,,liuchen-714,22,M,2020-07-16_16h42.59.976,AvatarManual,3.2.2,MacIntel,60,,,,,,,,,,,,,500,-400,0,102,3.5,0,"[""stopped"",""stopped"",""stopped"",""stopped"",""stopped"",""stopped"",""stopped"",""stopped"",""stopped"",""stopped"",""stopped"",""stopped"",""stopped"",""stopped"",""stopped"",""stopped"",""stopped"",""stopped"",""left"",""left"",""stopped"",""stopped"",""stopped"",""stopped"",""left"",""left"",""left"",""left"",""left"",""stopped"",""stopped"",""stopped"",""stopped"",""stopped"",""left"",""left"",""left"",""left"",""left"",""stopped"",""stopped"",""stopped"",""left"",""left"",""left"",""left"",""left"",""left"",""stopped"",""stopped"",""stopped"",""stopped"",""left"",""left"",""left"",""left"",""left"",""left"",""stopped"",""stopped"",""stopped"",""stopped"",""left"",""left"",""left"",""left"",""left"",""stopped"",""stopped"",""stopped"",""stopped"",""stopped"",""left"",""left"",""left"",""left"",""stopped"",""stopped"",""stopped"",""stopped"",""left"",""left"",""left"",""left"",""left"",""left"",""left"",""stopped"",""stopped"",""stopped"",""stopped"",""left"",""left"",""left"",""left"",""left"",""stopped"",""stopped"",""stopped"",""stopped"",""left"",""left"",""left"",""left"",""left"",""stopped"",""stopped"",""stopped"",""stopped"",""left"",""left"",""left"",""left"",""left"",""left"",""stopped"",""stopped"",""stopped"",""stopped"",""left"",""left""]","[0,0,0,0,0,0,0,0,0,0,0,0,0,0,0,0,0,0,1,1,0,0,0,0,1,1,1,1,1,0,0,0,0,0,1,1,1,1,1,0,0,0,1,1,1,1,1,1,0,0,0,0,1,1,1,1,1,1,0,0,0,0,1,1,1,1,1,0,0,0,0,0,1,1,1,1,0,0,0,0,1,1,1,1,1,1,1,0,0,0,0,1,1,1,1,1,0,0,0,0,1,1,1,1,1,0,0,0,0,1,1,1,1,1,1,0,0,0,0,1,1]",399,"[-8.05615234375,-53.13262939453125,-52.77655029296875,-52.77655029296875,-52.77655029296875,-52.77655029296875,-52.77655029296875,-52.77655029296875,-52.77655029296875,-52.77655029296875,-52.77655029296875,-52.77655029296875,-52.77655029296875,-52.77655029296875,-52.77655029296875,-52.77655029296875,-52.77655029296875,-52.77655029296875,-52.77655029296875,-52.77655029296875,-52.77655029296875,-52.77655029296875,-52.77655029296875,-52.77655029296875]","[-198.12933349609375,-194.2125244140625,-194.2125244140625,-194.2125244140625,-194.2125244140625,-194.2125244140625,-194.2125244140625,-194.2125244140625,-194.2125244140625,-194.2125244140625,-194.2125244140625,-194.2125244140625,-194.2125244140625,-194.2125244140625,-194.2125244140625,-194.2125244140625,-194.2125244140625,-194.2125244140625,-194.2125244140625,-194.2125244140625,-194.2125244140625,-194.2125244140625,-194.2125244140625,-194.2125244140625]","[0,1,0,1,0,1,0,1,0,1,0,1,0,1,0,1,0,1,0,1,0,1,0,1]","[0,0,0,0,0,0,0,0,0,0,0,0,0,0,0,0,0,0,0,0,0,0,0,0]","[1,1,1,1,1,1,1,1,1,1,1,1,1,1,1,1,1,1,1,1,1,1,1,1]","[0.08300018310546875,2.0840001106262207,2.1510000228881836,2.2330000400543213,2.302999973297119,2.386000156402588,2.4769999980926514,2.5190000534057617,2.618000030517578,2.68500018119812,2.7870001792907715,2.8530001640319824,2.940999984741211,3.0199999809265137,3.0989999771118164,3.1530001163482666,3.2680001258850098,3.3420000076293945,3.4179999828338623,3.486999988555908,3.577000141143799,3.6449999809265137,3.743000030517578,3.811000108718872]","[""LeftClickDemo"",""LeftClickDemo"",""LeftClickDemo"",""LeftClickDemo"",""LeftClickDemo"",""LeftClickDemo"",""LeftClickDemo"",""LeftClickDemo"",""LeftClickDemo"",""LeftClickDemo"",""LeftClickDemo"",""LeftClickDemo"",""LeftClickDemo"",""LeftClickDemo"",""LeftClickDemo"",""LeftClickDemo"",""LeftClickDemo"",""LeftClickDemo"",""LeftClickDemo"",""LeftClickDemo"",""LeftClickDemo"",""LeftClickDemo"",""LeftClickDemo""]",-203,100,5027,space,0.165999889,1,0,1,0,1,0,48,0,48,0,1,47,,,,,,,,,,,,,,,,,,,,,,,,,,,,,,,,,,,,,,,,,,,,,,,,,,,,,,,,,,,
,,,,,,,,,,,,,,,,,,,,,liuchen-714,22,M,2020-07-16_16h42.59.976,AvatarManual,3.2.2,MacIntel,60,,,,,,,,,,,,,200,-100,0,98,3.5,0,"[""stopped"",""stopped"",""stopped"",""stopped"",""stopped"",""stopped"",""stopped"",""stopped"",""stopped"",""stopped"",""stopped"",""stopped"",""stopped"",""stopped"",""stopped"",""stopped"",""stopped"",""stopped"",""stopped"",""stopped"",""stopped"",""stopped"",""stopped"",""stopped"",""stopped"",""stopped"",""stopped"",""stopped"",""stopped"",""stopped"",""stopped"",""stopped"",""stopped"",""stopped"",""stopped"",""stopped"",""stopped"",""stopped"",""stopped"",""stopped"",""stopped"",""stopped"",""stopped"",""stopped"",""stopped"",""stopped"",""stopped"",""stopped"",""stopped"",""stopped"",""stopped"",""stopped"",""stopped"",""stopped"",""stopped"",""stopped"",""stopped"",""stopped"",""stopped"",""stopped"",""stopped"",""stopped"",""stopped"",""stopped"",""stopped"",""stopped"",""stopped"",""stopped"",""stopped"",""stopped"",""stopped"",""stopped"",""stopped"",""stopped"",""stopped"",""stopped"",""stopped"",""stopped"",""stopped"",""stopped"",""left"",""left"",""left"",""left"",""left"",""stopped"",""stopped"",""left"",""left"",""stopped"",""stopped"",""stopped"",""left"",""left"",""left"",""left"",""left"",""stopped"",""stopped"",""stopped"",""stopped"",""left"",""left"",""left"",""left"",""left"",""left"",""stopped"",""stopped"",""stopped"",""stopped"",""stopped"",""stopped"",""stopped"",""stopped"",""stopped"",""stopped"",""stopped"",""stopped"",""stopped"",""stopped""]","[0,0,0,0,0,0,0,0,0,0,0,0,0,0,0,0,0,0,0,0,0,0,0,0,0,0,0,0,0,0,0,0,0,0,0,0,0,0,0,0,0,0,0,0,0,0,0,0,0,0,0,0,0,0,0,0,0,0,0,0,0,0,0,0,0,0,0,0,0,0,0,0,0,0,0,0,0,0,0,0,1,1,1,1,1,0,0,1,1,0,0,0,1,1,1,1,1,0,0,0,0,1,1,1,1,1,1,0,0,0,0,0,0,0,0,0,0,0,0,0,0]",1419,"[-0.07684326171875,-36.04083251953125,-36.04083251953125,-36.04083251953125,-36.04083251953125,-36.04083251953125,-36.04083251953125,-34.61651611328125,-34.61651611328125]","[-203.82666015625,-199.9097900390625,-199.9097900390625,-199.9097900390625,-199.9097900390625,-199.9097900390625,-199.9097900390625,-199.5537109375,-199.5537109375]","[0,1,0,1,0,1,0,1,0]","[0,0,0,0,0,0,0,0,0]","[1,1,1,1,1,1,1,1,1]","[0.10099983215332031,3.1050000190734863,3.2039999961853027,3.2719998359680176,3.3379998207092285,3.3980000019073486,3.486999988555908,3.555999994277954,3.6549999713897705]","[""LeftClickDemo"",""LeftClickDemo"",""LeftClickDemo"",""LeftClickDemo"",""LeftClickDemo"",""LeftClickDemo"",""LeftClickDemo"",""LeftClickDemo""]",-63,100,5177,space,0.263000011,1,0,1,0,1,0,48,0,48,0,1,47,,,,,,,,,,,,,,,,,,,,,,,,,,,,,,,,,,,,,,,,,,,,,,,,,,,,,,,,,,,
,,,,,,,,,,,,,,,,,,,,,liuchen-714,22,M,2020-07-16_16h42.59.976,AvatarManual,3.2.2,MacIntel,60,,,,,,,,,,,,,300,-200,0,71,3.5,0,"[""stopped"",""stopped"",""stopped"",""stopped"",""stopped"",""stopped"",""stopped"",""stopped"",""stopped"",""stopped"",""stopped"",""stopped"",""stopped"",""stopped"",""stopped"",""stopped"",""stopped"",""left"",""left"",""left"",""left"",""stopped"",""stopped"",""stopped"",""stopped"",""left"",""left"",""left"",""left"",""left"",""stopped"",""stopped"",""stopped"",""stopped"",""stopped"",""left"",""left"",""left"",""left"",""left"",""stopped"",""stopped"",""stopped"",""stopped"",""stopped"",""left"",""left"",""left"",""left"",""left"",""stopped"",""stopped"",""stopped"",""stopped"",""left"",""left"",""left"",""left"",""left"",""stopped"",""stopped"",""stopped"",""stopped"",""left"",""left"",""left"",""left"",""left"",""stopped"",""stopped"",""stopped"",""left"",""left"",""left"",""left"",""left"",""stopped"",""stopped"",""stopped"",""stopped"",""stopped"",""left"",""left"",""left"",""left"",""left"",""stopped"",""stopped"",""stopped"",""stopped"",""left"",""left"",""left"",""left"",""left"",""stopped"",""stopped"",""stopped"",""stopped"",""left"",""left"",""left"",""left"",""stopped"",""stopped"",""stopped"",""stopped"",""left"",""left"",""left"",""stopped"",""stopped"",""stopped"",""stopped"",""stopped"",""stopped"",""stopped"",""stopped"",""down"",""down"",""down""]","[0,0,0,0,0,0,0,0,0,0,0,0,0,0,0,0,0,1,1,1,1,0,0,0,0,1,1,1,1,1,0,0,0,0,0,1,1,1,1,1,0,0,0,0,0,1,1,1,1,1,0,0,0,0,1,1,1,1,1,0,0,0,0,1,1,1,1,1,0,0,0,1,1,1,1,1,0,0,0,0,0,1,1,1,1,1,0,0,0,0,1,1,1,1,1,0,0,0,0,1,1,1,1,0,0,0,0,1,1,1,0,0,0,0,0,0,0,0,1,1,1]",283,"[-4.70587158203125,-32.48004150390625,-34.26043701171875,-34.26043701171875,-34.26043701171875,-34.26043701171875,-34.26043701171875,-34.26043701171875,-34.26043701171875,-34.26043701171875,-34.26043701171875,-34.26043701171875,-34.26043701171875,-34.26043701171875,-34.26043701171875,-34.26043701171875,-34.26043701171875,-34.26043701171875,-34.26043701171875,-34.26043701171875,-34.26043701171875,-32.83612060546875,-22.8658447265625,-1.85711669921875]","[-207.03143310546875,-201.33416748046875,-201.33416748046875,-201.33416748046875,-201.33416748046875,-201.33416748046875,-201.33416748046875,-201.33416748046875,-201.33416748046875,-201.33416748046875,-201.33416748046875,-201.33416748046875,-201.33416748046875,-201.33416748046875,-201.33416748046875,-201.33416748046875,-201.33416748046875,-201.33416748046875,-201.33416748046875,-201.33416748046875,-201.33416748046875,-197.77337646484375,-202.04632568359375,-236.5860595703125]","[0,1,0,1,0,1,0,1,0,1,0,1,0,1,0,1,0,1,0,1,0,1,0,1]","[0,0,0,0,0,0,0,0,0,0,0,0,0,0,0,0,0,0,0,0,0,0,0,0]","[1,1,1,1,1,1,1,1,1,1,1,1,1,1,1,1,1,1,1,1,1,1,1,1]","[0.10100007057189941,1.5859999656677246,1.6640000343322754,1.7200000286102295,1.806999921798706,1.8859999179840088,1.9679999351501465,2.052999973297119,2.135999917984009,2.2019999027252197,2.2950000762939453,2.3610000610351562,2.443000078201294,2.497999906539917,2.5810000896453857,2.6610000133514404,2.74399995803833,2.810999870300293,2.8929998874664307,2.9609999656677246,3.0269999504089355,3.0950000286102295,3.1470000743865967,3.2799999713897705]","[""LeftClickDemo"",""LeftClickDemo"",""LeftClickDemo"",""LeftClickDemo"",""LeftClickDemo"",""LeftClickDemo"",""LeftClickDemo"",""LeftClickDemo"",""LeftClickDemo"",""LeftClickDemo"",""LeftClickDemo"",""LeftClickDemo"",""LeftClickDemo"",""LeftClickDemo"",""LeftClickDemo"",""LeftClickDemo"",""LeftClickDemo"",""LeftClickDemo"",""LeftClickDemo"",""LeftClickDemo"",""LeftClickDemo"",""DownClickDemo""]",-178.5,89.5,4762,space,0.404999971,1,0,1,0,1,0,48,0,48,0,1,47,,,,,,,,,,,,,,,,,,,,,,,,,,,,,,,,,,,,,,,,,,,,,,,,,,,,,,,,,,,
,,,,,,,,,,,,,,,,,,,,,liuchen-714,22,M,2020-07-16_16h42.59.976,AvatarManual,3.2.2,MacIntel,60,,,,,,,,,,,,,400,-300,0,104,3.5,0,"[""stopped"",""stopped"",""stopped"",""stopped"",""stopped"",""stopped"",""stopped"",""stopped"",""stopped"",""stopped"",""stopped"",""stopped"",""stopped"",""stopped"",""stopped"",""stopped"",""stopped"",""stopped"",""stopped"",""stopped"",""stopped"",""stopped"",""stopped"",""down"",""down"",""down"",""down"",""stopped"",""stopped"",""stopped"",""stopped"",""down"",""down"",""down"",""down"",""down"",""stopped"",""stopped"",""stopped"",""stopped"",""stopped"",""down"",""down"",""down"",""down"",""down"",""stopped"",""stopped"",""stopped"",""down"",""down"",""down"",""down"",""down"",""down"",""stopped"",""stopped"",""stopped"",""stopped"",""down"",""down"",""down"",""down"",""stopped"",""stopped"",""stopped"",""stopped"",""stopped"",""stopped"",""stopped"",""stopped"",""left"",""left"",""left"",""left"",""left"",""left"",""stopped"",""stopped"",""stopped"",""stopped"",""stopped"",""left"",""left"",""left"",""left"",""left"",""stopped"",""stopped"",""stopped"",""stopped"",""stopped"",""left"",""left"",""left"",""left"",""left"",""stopped"",""stopped"",""stopped"",""stopped"",""left"",""left"",""left"",""left"",""left"",""stopped"",""stopped"",""stopped"",""left"",""left"",""left"",""left"",""left"",""left"",""stopped"",""stopped"",""stopped"",""stopped"",""left"",""left""]","[0,0,0,0,0,0,0,0,0,0,0,0,0,0,0,0,0,0,0,0,0,0,0,1,1,1,1,0,0,0,0,1,1,1,1,1,0,0,0,0,0,1,1,1,1,1,0,0,0,1,1,1,1,1,1,0,0,0,0,1,1,1,1,0,0,0,0,0,0,0,0,1,1,1,1,1,1,0,0,0,0,0,1,1,1,1,1,0,0,0,0,0,1,1,1,1,1,0,0,0,0,1,1,1,1,1,0,0,0,1,1,1,1,1,1,0,0,0,0,1,1]",383,"[5.26446533203125,-8.97869873046875,-8.97869873046875,-8.97869873046875,-8.97869873046875,-8.97869873046875,-8.97869873046875,-8.97869873046875,-8.97869873046875,-8.97869873046875,-9.33477783203125,-34.616455078125,-36.3968505859375,-40.313720703125,-40.313720703125,-40.313720703125,-40.313720703125,-40.6697998046875,-40.6697998046875,-40.6697998046875,-40.6697998046875,-40.6697998046875]","[-196.34912109375,-224.4793701171875,-224.4793701171875,-224.4793701171875,-224.4793701171875,-224.4793701171875,-224.4793701171875,-224.4793701171875,-224.4793701171875,-224.4793701171875,-224.4793701171875,-189.9395751953125,-189.9395751953125,-185.6666259765625,-185.6666259765625,-185.6666259765625,-185.6666259765625,-185.310546875,-185.310546875,-185.310546875,-185.310546875,-185.310546875]","[0,1,0,1,0,1,0,1,0,1,0,1,0,1,0,1,0,1,0,1,0,1]","[0,0,0,0,0,0,0,0,0,0,0,0,0,0,0,0,0,0,0,0,0,0]","[1,1,1,1,1,1,1,1,1,1,1,1,1,1,1,1,1,1,1,1,1,1]","[0.09999990463256836,2.1029999256134033,2.1689999103546143,2.235999822616577,2.319000005722046,2.4029998779296875,2.484999895095825,2.5360000133514404,2.635999917984009,2.7029998302459717,2.7679998874664307,2.9019999504089355,3.001999855041504,3.0879998207092285,3.169999837875366,3.253999948501587,3.3359999656677246,3.4039998054504395,3.485999822616577,3.5389997959136963,3.6369998455047607,3.7039999961853027]","[""DownClickDemo"",""DownClickDemo"",""DownClickDemo"",""DownClickDemo"",""DownClickDemo"",""DownClickDemo"",""DownClickDemo"",""DownClickDemo"",""DownClickDemo"",""DownClickDemo"",""LeftClickDemo"",""LeftClickDemo"",""LeftClickDemo"",""LeftClickDemo"",""LeftClickDemo"",""LeftClickDemo"",""LeftClickDemo"",""LeftClickDemo"",""LeftClickDemo"",""LeftClickDemo"",""LeftClickDemo""]",-101.5,16,4989,space,0.214999914,1,0,1,0,1,0,48,0,48,0,1,47,,,,,,,,,,,,,,,,,,,,,,,,,,,,,,,,,,,,,,,,,,,,,,,,,,,,,,,,,,,
,,,,,,,,,,,,,,,,,,,,,liuchen-714,22,M,2020-07-16_16h42.59.976,AvatarManual,3.2.2,MacIntel,60,,,,,,,,,,,,,400,300,0,104,3.5,0,"[""stopped"",""stopped"",""stopped"",""stopped"",""stopped"",""stopped"",""stopped"",""stopped"",""stopped"",""stopped"",""stopped"",""stopped"",""stopped"",""stopped"",""right"",""right"",""right"",""right"",""right"",""stopped"",""stopped"",""stopped"",""stopped"",""right"",""right"",""right"",""right"",""right"",""stopped"",""stopped"",""stopped"",""stopped"",""right"",""right"",""right"",""right"",""right"",""stopped"",""stopped"",""stopped"",""stopped"",""right"",""right"",""right"",""right"",""right"",""stopped"",""stopped"",""stopped"",""stopped"",""stopped"",""right"",""right"",""right"",""right"",""stopped"",""stopped"",""stopped"",""stopped"",""right"",""right"",""right"",""right"",""right"",""stopped"",""stopped"",""stopped"",""stopped"",""right"",""right"",""right"",""right"",""stopped"",""stopped"",""stopped"",""stopped"",""stopped"",""right"",""right"",""right"",""right"",""right"",""right"",""stopped"",""stopped"",""stopped"",""right"",""right"",""right"",""right"",""right"",""stopped"",""stopped"",""stopped"",""stopped"",""stopped"",""right"",""right"",""right"",""right"",""stopped"",""stopped"",""stopped"",""right"",""right"",""right"",""right"",""right"",""right"",""stopped"",""stopped"",""stopped"",""stopped"",""stopped"",""stopped"",""stopped"",""right"",""right"",""right"",""stopped"",""stopped""]","[0,0,0,0,0,0,0,0,0,0,0,0,0,0,1,1,1,1,1,0,0,0,0,1,1,1,1,1,0,0,0,0,1,1,1,1,1,0,0,0,0,1,1,1,1,1,0,0,0,0,0,1,1,1,1,0,0,0,0,1,1,1,1,1,0,0,0,0,1,1,1,1,0,0,0,0,0,1,1,1,1,1,1,0,0,0,1,1,1,1,1,0,0,0,0,0,1,1,1,1,0,0,0,1,1,1,1,1,1,0,0,0,0,0,0,0,1,1,1,0,0]",249,"[-10.403076171875,33.3946533203125,33.3946533203125,33.3946533203125,33.3946533203125,33.3946533203125,33.3946533203125,33.3946533203125,33.3946533203125,33.3946533203125,33.3946533203125,33.3946533203125,33.3946533203125,33.3946533203125,33.3946533203125,33.3946533203125,33.3946533203125,33.3946533203125,33.3946533203125,33.3946533203125,33.3946533203125,33.3946533203125,33.3946533203125,33.3946533203125,33.3946533203125]","[-201.690185546875,-191.3638916015625,-191.3638916015625,-191.3638916015625,-191.3638916015625,-191.3638916015625,-191.3638916015625,-191.3638916015625,-191.3638916015625,-191.3638916015625,-191.3638916015625,-191.3638916015625,-191.3638916015625,-191.3638916015625,-191.3638916015625,-191.3638916015625,-191.3638916015625,-191.3638916015625,-191.3638916015625,-191.3638916015625,-191.3638916015625,-191.3638916015625,-191.3638916015625,-191.3638916015625,-191.3638916015625]","[0,1,0,1,0,1,0,1,0,1,0,1,0,1,0,1,0,1,0,1,0,1,0,1,0]","[0,0,0,0,0,0,0,0,0,0,0,0,0,0,0,0,0,0,0,0,0,0,0,0,0]","[1,1,1,1,1,1,1,1,1,1,1,1,1,1,1,1,1,1,1,1,1,1,1,1,1]","[0.0840001106262207,2.1089999675750732,2.190999984741211,2.259000062942505,2.3410000801086426,2.4100000858306885,2.490000009536743,2.559999942779541,2.6419999599456787,2.7269999980926514,2.7920000553131104,2.8610000610351562,2.940999984741211,3.009999990463257,3.075000047683716,3.1610000133514404,3.259000062942505,3.311000108718872,3.3940000534057617,3.4769999980926514,3.5429999828338623,3.5940001010894775,3.693000078201294,3.811000108718872,3.8600001335144043]","[""RightClickDemo"",""RightClickDemo"",""RightClickDemo"",""RightClickDemo"",""RightClickDemo"",""RightClickDemo"",""RightClickDemo"",""RightClickDemo"",""RightClickDemo"",""RightClickDemo"",""RightClickDemo"",""RightClickDemo"",""RightClickDemo"",""RightClickDemo"",""RightClickDemo"",""RightClickDemo"",""RightClickDemo"",""RightClickDemo"",""RightClickDemo"",""RightClickDemo"",""RightClickDemo"",""RightClickDemo"",""RightClickDemo"",""RightClickDemo""]",199.5,100,5112,space,0.200999975,1,0,1,0,1,0,48,0,48,0,1,47,,,,,,,,,,,,,,,,,,,,,,,,,,,,,,,,,,,,,,,,,,,,,,,,,,,,,,,,,,,
,,,,,,,,,,,,,,,,,,,,,liuchen-714,22,M,2020-07-16_16h42.59.976,AvatarManual,3.2.2,MacIntel,60,,,,,,,,,,,,,300,-200,0,114,3.5,0,"[""stopped"",""stopped"",""stopped"",""stopped"",""stopped"",""stopped"",""stopped"",""stopped"",""stopped"",""stopped"",""stopped"",""stopped"",""stopped"",""stopped"",""stopped"",""stopped"",""stopped"",""left"",""left"",""left"",""left"",""stopped"",""stopped"",""stopped"",""stopped"",""left"",""left"",""left"",""left"",""left"",""left"",""stopped"",""stopped"",""stopped"",""left"",""left"",""left"",""left"",""left"",""left"",""left"",""stopped"",""stopped"",""stopped"",""stopped"",""left"",""left"",""left"",""left"",""left"",""left"",""stopped"",""stopped"",""stopped"",""stopped"",""left"",""left"",""left"",""left"",""left"",""left"",""stopped"",""stopped"",""stopped"",""stopped"",""stopped"",""left"",""left"",""left"",""left"",""left"",""stopped"",""stopped"",""stopped"",""stopped"",""stopped"",""left"",""left"",""left"",""left"",""stopped"",""stopped"",""stopped"",""stopped"",""stopped"",""stopped"",""left"",""left"",""left"",""left"",""stopped"",""stopped"",""stopped"",""stopped"",""stopped"",""stopped"",""stopped"",""stopped"",""stopped"",""stopped"",""down"",""down"",""down"",""down"",""down"",""stopped"",""stopped"",""stopped"",""stopped"",""stopped"",""down"",""down"",""down"",""down"",""down"",""down"",""stopped"",""stopped"",""stopped"",""stopped"",""down""]","[0,0,0,0,0,0,0,0,0,0,0,0,0,0,0,0,0,1,1,1,1,0,0,0,0,1,1,1,1,1,1,0,0,0,1,1,1,1,1,1,1,0,0,0,0,1,1,1,1,1,1,0,0,0,0,1,1,1,1,1,1,0,0,0,0,0,1,1,1,1,1,0,0,0,0,0,1,1,1,1,0,0,0,0,0,0,1,1,1,1,0,0,0,0,0,0,0,0,0,0,1,1,1,1,1,0,0,0,0,0,1,1,1,1,1,1,0,0,0,0,1]",284,"[-0.07696533203125,-47.9375,-47.9375,-47.9375,-47.9375,-47.9375,-47.9375,-47.9375,-47.5814208984375,-47.5814208984375,-47.5814208984375,-47.5814208984375,-47.5814208984375,-47.5814208984375,-47.5814208984375,-47.5814208984375,-46.8692626953125,-12.53985595703125,-5.06219482421875,-5.06219482421875,-4.35003662109375,-4.35003662109375]","[-195.28076171875,-187.6358642578125,-187.6358642578125,-187.6358642578125,-187.6358642578125,-187.6358642578125,-187.6358642578125,-187.6358642578125,-188.7041015625,-188.7041015625,-188.7041015625,-188.7041015625,-188.7041015625,-188.7041015625,-188.7041015625,-188.7041015625,-188.7041015625,-220.72979736328125,-235.32904052734375,-235.32904052734375,-233.19256591796875,-232.83648681640625]","[0,1,0,1,0,1,0,1,0,1,0,1,0,1,0,1,0,1,0,1,0,1]","[0,0,0,0,0,0,0,0,0,0,0,0,0,0,0,0,0,0,0,0,0,0]","[1,1,1,1,1,1,1,1,1,1,1,1,1,1,1,1,1,1,1,1,1,1]","[0.0839998722076416,2.169999837875366,2.234999895095825,2.302999973297119,2.4019999504089355,2.453000068664551,2.567999839782715,2.635999917984009,2.734999895095825,2.803999900817871,2.9019999504089355,2.986999988555908,3.069000005722046,3.1540000438690186,3.2189998626708984,3.32099986076355,3.385999917984009,3.552999973297119,3.6369998455047607,3.7200000286102295,3.819999933242798,3.885999917984009]","[""LeftClickDemo"",""LeftClickDemo"",""LeftClickDemo"",""LeftClickDemo"",""LeftClickDemo"",""LeftClickDemo"",""LeftClickDemo"",""LeftClickDemo"",""LeftClickDemo"",""LeftClickDemo"",""LeftClickDemo"",""LeftClickDemo"",""LeftClickDemo"",""LeftClickDemo"",""LeftClickDemo"",""LeftClickDemo"",""DownClickDemo"",""DownClickDemo"",""DownClickDemo"",""DownClickDemo"",""DownClickDemo""]",-147,58,5443,space,0.380000114,1,0,1,0,1,0,48,0,48,0,1,47,,,,,,,,,,,,,,,,,,,,,,,,,,,,,,,,,,,,,,,,,,,,,,,,,,,,,,,,,,,
,,,,,,,,,,,,,,,,,,,,,liuchen-714,22,M,2020-07-16_16h42.59.976,AvatarManual,3.2.2,MacIntel,60,,,,,,,,,,,,,200,-100,0,110,3.5,0,"[""stopped"",""stopped"",""stopped"",""stopped"",""stopped"",""stopped"",""stopped"",""stopped"",""stopped"",""stopped"",""stopped"",""stopped"",""stopped"",""stopped"",""stopped"",""stopped"",""stopped"",""stopped"",""stopped"",""stopped"",""stopped"",""stopped"",""stopped"",""stopped"",""stopped"",""stopped"",""stopped"",""stopped"",""stopped"",""stopped"",""left"",""left"",""left"",""left"",""stopped"",""stopped"",""stopped"",""stopped"",""stopped"",""stopped"",""left"",""left"",""left"",""left"",""left"",""stopped"",""stopped"",""stopped"",""stopped"",""left"",""left"",""left"",""left"",""left"",""stopped"",""stopped"",""stopped"",""stopped"",""left"",""left"",""left"",""left"",""left"",""stopped"",""stopped"",""stopped"",""stopped"",""stopped"",""left"",""left"",""left"",""left"",""left"",""stopped"",""stopped"",""stopped"",""stopped"",""stopped"",""stopped"",""stopped"",""stopped"",""stopped"",""stopped"",""stopped"",""stopped"",""stopped"",""stopped"",""stopped"",""stopped"",""stopped"",""stopped"",""stopped"",""stopped"",""stopped"",""down"",""stopped"",""stopped"",""stopped"",""stopped"",""down"",""down"",""down"",""down"",""down"",""stopped"",""stopped"",""stopped"",""stopped"",""stopped"",""stopped"",""stopped"",""stopped"",""stopped"",""stopped"",""stopped"",""stopped"",""stopped"",""stopped"",""stopped"",""stopped"",""stopped""]","[0,0,0,0,0,0,0,0,0,0,0,0,0,0,0,0,0,0,0,0,0,0,0,0,0,0,0,0,0,0,1,1,1,1,0,0,0,0,0,0,1,1,1,1,1,0,0,0,0,1,1,1,1,1,0,0,0,0,1,1,1,1,1,0,0,0,0,0,1,1,1,1,1,0,0,0,0,0,0,0,0,0,0,0,0,0,0,0,0,0,0,0,0,0,1,0,0,0,0,1,1,1,1,1,0,0,0,0,0,0,0,0,0,0,0,0,0,0,0,0,0]",499,"[12.4910888671875,-43.413330078125,-43.413330078125,-43.413330078125,-43.413330078125,-43.413330078125,-43.413330078125,-43.413330078125,-43.413330078125,-43.413330078125,-34.5113525390625,-25.9654541015625,-23.8289794921875,-21.6925048828125,-15.63916015625,-13.502685546875,-12.79052734375]","[-196.87249755859375,-200.43328857421875,-200.43328857421875,-200.43328857421875,-200.43328857421875,-200.43328857421875,-200.43328857421875,-200.43328857421875,-200.43328857421875,-200.43328857421875,-205.7745361328125,-245.089111328125,-245.089111328125,-244.0208740234375,-240.816162109375,-239.0357666015625,-235.8310546875]","[0,1,0,1,0,1,0,1,0,1,0,1,0,1,0,1,0]","[0,0,0,0,0,0,0,0,0,0,0,0,0,0,0,0,0]","[1,1,1,1,1,1,1,1,1,1,1,1,1,1,1,1,1]","[0.09800004959106445,2.326000213623047,2.392000198364258,2.493000030517578,2.577000141143799,2.6440000534057617,2.7260000705718994,2.7940001487731934,2.875,2.9630000591278076,3.0430002212524414,3.1610000133514404,3.244000196456909,3.329000234603882,3.4100000858306885,3.4770002365112305,3.56000018119812]","[""LeftClickDemo"",""LeftClickDemo"",""LeftClickDemo"",""LeftClickDemo"",""LeftClickDemo"",""LeftClickDemo"",""LeftClickDemo"",""LeftClickDemo"",""LeftClickDemo"",""LeftClickDemo"",""DownClickDemo"",""DownClickDemo"",""DownClickDemo""]",-84,79,8397,space,0.772000074,1,0,1,0,1,0,48,0,48,0,1,47,,,,,,,,,,,,,,,,,,,,,,,,,,,,,,,,,,,,,,,,,,,,,,,,,,,,,,,,,,,
