Browser,true_x_res,true_y_res,x_adjustment,y_adjustment,Params_TravelTime,Params_yOffset,Params_Reach,Params_ScreenWidth,Params_ScreenHeight,Params_Hz,Params_HzScale,Params_conf_linewidth,params_consent,WelcomeEscape.keys,WelcomeEscape.rt,InstMouse.x,InstMouse.y,InstMouse.leftButton,InstMouse.midButton,InstMouse.rightButton,key_resp_2.keys,key_resp_2.rt,EndDemoExplantion.keys,EndDemoExplantion.rt,Demo_speedCond,Demo_delta,Demo_xposTarget,Demo_yposTarget,Demo_Delay,Demo_AvSpeed,Demo_Success,Demo_motion,Demo_Click,Demo_RTms,DemoMouse.x,DemoMouse.y,DemoMouse.leftButton,DemoMouse.midButton,DemoMouse.rightButton,DemoMouse.time,DemoMouse.clicked_name,Demo_finalX,Demo_finalY,DemoFeedBackMoveOn.keys,DemoFeedBackMoveOn.rt,BlockLoop.thisRepN,BlockLoop.thisTrialN,BlockLoop.thisN,BlockLoop.thisIndex,BlockLoop.ran,BlockLoop.order,DemoLoop.thisRepN,DemoLoop.thisTrialN,DemoLoop.thisN,DemoLoop.thisIndex,DemoLoop.ran,DemoLoop.order,participant,Age,Gender,date,expName,psychopyVersion,OS,frameRate,InstSkip.keys,InstSkip.rt,MoveOn.keys,MoveOn.rt,Decision_Delta,Decision_xposTarget,Decision_yposTarget,Decision_SpeedCond,Decision_AvSpeed,Decision_delay,Decision_targetSide,Decision_placement,Decision_initplace,AvatarMouse.x,AvatarMouse.y,AvatarMouse.leftButton,AvatarMouse.midButton,AvatarMouse.rightButton,AvatarMouse.time,PlacingKeyboard.keys,PlacingKeyboard.rt,Decision_Driving,Decision_Click,Decision_RTms,DrivingMouse.x,DrivingMouse.y,DrivingMouse.leftButton,DrivingMouse.midButton,DrivingMouse.rightButton,DrivingMouse.time,DrivingMouse.clicked_name,Decision_finalX,Decision_finalY,Decision_success,TrialMoveOn.keys,TrialMoveOn.rt,DecisionTrialLoop.thisRepN,DecisionTrialLoop.thisTrialN,DecisionTrialLoop.thisN,DecisionTrialLoop.thisIndex,DecisionTrialLoop.ran,DecisionTrialLoop.order,key_resp.keys,key_resp.rt,Conf_mouse.x,Conf_mouse.y,Conf_mouse.leftButton,Conf_mouse.midButton,Conf_mouse.rightButton,Conf_mouse.time,Conf_resp.keys,Conf_resp.rt,Confidence_Delta,Confidence_resp,ConfidenceLoop.thisRepN,ConfidenceLoop.thisTrialN,ConfidenceLoop.thisN,ConfidenceLoop.thisIndex,ConfidenceLoop.ran,ConfidenceLoop.order,exp_duration
Firefox,1920,976,1,1,120,100,45,1200,600,60,1,300,Agreed,space,2.380000114,1,-139,0,0,0,space,7.400000095,space,0.209000111,const,400,300,0,90,3.5,1,"[""stopped"",""stopped"",""stopped"",""stopped"",""stopped"",""stopped"",""stopped"",""stopped"",""stopped"",""stopped"",""stopped"",""stopped"",""stopped"",""stopped"",""stopped"",""stopped"",""stopped"",""down"",""down"",""down"",""down"",""down"",""down"",""down"",""down"",""down"",""down"",""down"",""down"",""down"",""down"",""down"",""down"",""down"",""down"",""down"",""down"",""down"",""down"",""down"",""down"",""stopped"",""right"",""right"",""right"",""right"",""right"",""right"",""right"",""right"",""right"",""right"",""right"",""right"",""right"",""right"",""right"",""right"",""right"",""right"",""right"",""right"",""right"",""right"",""right"",""right"",""right"",""right"",""right"",""right"",""right"",""right"",""right"",""right"",""right"",""right"",""right"",""right"",""right"",""right"",""right"",""right"",""right"",""right"",""right"",""right"",""right"",""right"",""right"",""right"",""right"",""right"",""right"",""right"",""right"",""right"",""right"",""right"",""right"",""right"",""right"",""right"",""right"",""right"",""right"",""right"",""right"",""right"",""right"",""right"",""right"",""right"",""right"",""right"",""right"",""right""]","[0,0,0,0,0,0,0,0,0,0,0,0,0,0,0,0,0,1,1,1,1,1,1,1,1,1,1,1,1,1,1,1,1,1,1,1,1,1,1,1,1,0,1,1,1,1,1,1,1,1,1,1,1,1,1,1,1,1,1,1,1,1,1,1,1,1,1,1,1,1,1,1,1,1,1,1,1,1,1,1,1,1,1,1,1,1,1,1,1,1,1,1,1,1,1,1,1,1,1,1,1,1,1,1,1,1,1,1,1,1,1,1,1,1,1,1]",284,[1],[-238],[1],[0],[0],[1.7670001983642578],"[""DownClickDemo""]",0,100,space,0.01699996,1,0,1,0,1,0,8,0,8,0,1,7,PilotWJ2,26,Male,2020-07-13_16h04.50.616,AvatarManual,3.2.2,Win32,60,,,,,,,,,,,,,,,,,,,,,,,,,,,,,,,,,,,,,,,,,,,,,,,,,,,,,,,,,,,,,
,,,,,,,,,,,,,,,,,,,,,,,,,,300,-200,0,83,3.5,1,"[""stopped"",""stopped"",""stopped"",""stopped"",""stopped"",""stopped"",""stopped"",""stopped"",""stopped"",""stopped"",""stopped"",""stopped"",""stopped"",""stopped"",""stopped"",""stopped"",""stopped"",""down"",""down"",""down"",""down"",""down"",""down"",""down"",""down"",""down"",""down"",""down"",""down"",""down"",""down"",""down"",""down"",""down"",""down"",""down"",""down"",""down"",""down"",""down"",""down"",""down"",""down"",""down"",""stopped"",""left"",""left"",""left"",""left"",""left"",""left"",""left"",""left"",""left"",""left"",""left"",""left"",""left"",""left"",""left"",""left"",""left"",""left"",""left"",""left"",""left"",""left"",""left"",""left"",""left"",""left"",""left"",""left"",""left"",""left"",""left"",""left"",""left"",""left"",""left"",""left"",""left"",""left"",""left"",""left"",""left"",""left"",""left"",""left"",""left""]","[0,0,0,0,0,0,0,0,0,0,0,0,0,0,0,0,0,1,1,1,1,1,1,1,1,1,1,1,1,1,1,1,1,1,1,1,1,1,1,1,1,1,1,1,0,1,1,1,1,1,1,1,1,1,1,1,1,1,1,1,1,1,1,1,1,1,1,1,1,1,1,1,1,1,1,1,1,1,1,1,1,1,1,1,1,1,1,1,1,1]",283,[-1],[-234],[1],[0],[0],[1.6510000228881836],"[""DownClickDemo""]",0,100,space,0.118999958,1,0,1,0,1,0,8,0,8,0,1,7,PilotWJ2,26,Male,2020-07-13_16h04.50.616,AvatarManual,3.2.2,Win32,60,,,,,,,,,,,,,,,,,,,,,,,,,,,,,,,,,,,,,,,,,,,,,,,,,,,,,,,,,,,,,
,,,,,,,,,,,,,,,,,,,,,,,,,,300,-200,0,140,3.5,1,"[""stopped"",""stopped"",""stopped"",""stopped"",""stopped"",""stopped"",""stopped"",""stopped"",""stopped"",""stopped"",""stopped"",""stopped"",""stopped"",""stopped"",""stopped"",""stopped"",""down"",""down"",""down"",""down"",""down"",""down"",""down"",""down"",""down"",""down"",""down"",""down"",""down"",""down"",""down"",""down"",""down"",""down"",""down"",""down"",""down"",""down"",""down"",""down"",""down"",""down"",""stopped"",""left"",""left"",""left"",""left"",""left"",""left"",""left"",""left"",""left"",""left"",""left"",""left"",""left"",""left"",""left"",""left"",""left"",""left"",""left"",""left"",""left"",""left"",""left"",""left"",""left"",""left"",""left"",""left"",""left"",""left"",""left"",""left"",""left"",""left"",""left"",""left"",""left"",""left"",""left"",""left"",""left"",""left"",""left"",""left"",""left""]","[0,0,0,0,0,0,0,0,0,0,0,0,0,0,0,0,1,1,1,1,1,1,1,1,1,1,1,1,1,1,1,1,1,1,1,1,1,1,1,1,1,1,0,1,1,1,1,1,1,1,1,1,1,1,1,1,1,1,1,1,1,1,1,1,1,1,1,1,1,1,1,1,1,1,1,1,1,1,1,1,1,1,1,1,1,1,1,1]",266,[1],[-229],[1],[0],[0],[2.5989999771118164],"[""DownClickDemo""]",0,100,space,0.217999935,1,0,1,0,1,0,8,0,8,0,1,7,PilotWJ2,26,Male,2020-07-13_16h04.50.616,AvatarManual,3.2.2,Win32,60,,,,,,,,,,,,,,,,,,,,,,,,,,,,,,,,,,,,,,,,,,,,,,,,,,,,,,,,,,,,,
,,,,,,,,,,,,,,,,,,,,,,,,,,200,-100,0,135,3.5,1,"[""stopped"",""stopped"",""stopped"",""stopped"",""stopped"",""stopped"",""stopped"",""stopped"",""stopped"",""stopped"",""stopped"",""stopped"",""stopped"",""stopped"",""stopped"",""stopped"",""down"",""down"",""down"",""down"",""down"",""down"",""down"",""down"",""down"",""down"",""down"",""down"",""down"",""down"",""down"",""down"",""down"",""down"",""down"",""down"",""down"",""down"",""down"",""down"",""down"",""down"",""down"",""stopped"",""left"",""left"",""left"",""left"",""left"",""left"",""left"",""left"",""left"",""left"",""left"",""left"",""left"",""left"",""left"",""left""]","[0,0,0,0,0,0,0,0,0,0,0,0,0,0,0,0,1,1,1,1,1,1,1,1,1,1,1,1,1,1,1,1,1,1,1,1,1,1,1,1,1,1,1,0,1,1,1,1,1,1,1,1,1,1,1,1,1,1,1,1]",299,[1],[-233],[1],[0],[0],[2.5329999923706055],"[""DownClickDemo""]",0,100,space,0.301000118,1,0,1,0,1,0,8,0,8,0,1,7,PilotWJ2,26,Male,2020-07-13_16h04.50.616,AvatarManual,3.2.2,Win32,60,,,,,,,,,,,,,,,,,,,,,,,,,,,,,,,,,,,,,,,,,,,,,,,,,,,,,,,,,,,,,
,,,,,,,,,,,,,,,,,,,,,,,,,,400,300,0,76,3.5,0,"[""stopped"",""stopped"",""stopped"",""stopped"",""stopped"",""stopped"",""stopped"",""stopped"",""stopped"",""stopped"",""stopped"",""stopped"",""stopped"",""stopped"",""stopped"",""stopped"",""stopped"",""stopped"",""down"",""down"",""down"",""down"",""down"",""down"",""down"",""down"",""down"",""down"",""down"",""down"",""down"",""down"",""down"",""down"",""down"",""down"",""down"",""down"",""down"",""down"",""down"",""down"",""down"",""stopped"",""right"",""right"",""stopped"",""stopped"",""stopped"",""stopped"",""stopped"",""stopped"",""stopped"",""stopped"",""stopped"",""stopped"",""stopped"",""stopped"",""stopped"",""stopped"",""stopped"",""right"",""right"",""right"",""right"",""right"",""right"",""right"",""right"",""right"",""right"",""right"",""right"",""right"",""right"",""right"",""right"",""right"",""right"",""right"",""right"",""right"",""right"",""right"",""right"",""right"",""right"",""right"",""right"",""right"",""right"",""right"",""right"",""right"",""right"",""right"",""right"",""right"",""right"",""right"",""right"",""right"",""right"",""right"",""right"",""right"",""right"",""right"",""right"",""right"",""right"",""right"",""right"",""right"",""right"",""right"",""right"",""right"",""right"",""right"",""right""]","[0,0,0,0,0,0,0,0,0,0,0,0,0,0,0,0,0,0,1,1,1,1,1,1,1,1,1,1,1,1,1,1,1,1,1,1,1,1,1,1,1,1,1,0,1,1,0,0,0,0,0,0,0,0,0,0,0,0,0,0,0,1,1,1,1,1,1,1,1,1,1,1,1,1,1,1,1,1,1,1,1,1,1,1,1,1,1,1,1,1,1,1,1,1,1,1,1,1,1,1,1,1,1,1,1,1,1,1,1,1,1,1,1,1,1,1,1,1,1,1,1]",300,[-6],[-231],[1],[0],[0],[1.5500001907348633],"[""DownClickDemo""]",0,100,space,0.307999849,1,0,1,0,1,0,8,0,8,0,1,7,PilotWJ2,26,Male,2020-07-13_16h04.50.616,AvatarManual,3.2.2,Win32,60,,,,,,,,,,,,,,,,,,,,,,,,,,,,,,,,,,,,,,,,,,,,,,,,,,,,,,,,,,,,,
,,,,,,,,,,,,,,,,,,,,,,,,,,200,100,0,104,3.5,1,"[""stopped"",""stopped"",""stopped"",""stopped"",""stopped"",""stopped"",""stopped"",""stopped"",""stopped"",""stopped"",""stopped"",""stopped"",""stopped"",""stopped"",""stopped"",""stopped"",""stopped"",""stopped"",""down"",""down"",""down"",""down"",""down"",""down"",""down"",""down"",""down"",""down"",""down"",""down"",""down"",""down"",""down"",""down"",""down"",""down"",""down"",""down"",""down"",""down"",""down"",""down"",""down"",""down"",""down"",""down"",""down"",""down"",""stopped"",""stopped"",""stopped"",""stopped"",""stopped"",""stopped"",""right"",""right"",""right"",""right"",""right"",""right"",""right"",""right"",""right"",""right"",""right"",""right"",""right"",""right"",""right"",""right""]","[0,0,0,0,0,0,0,0,0,0,0,0,0,0,0,0,0,0,1,1,1,1,1,1,1,1,1,1,1,1,1,1,1,1,1,1,1,1,1,1,1,1,1,1,1,1,1,1,0,0,0,0,0,0,1,1,1,1,1,1,1,1,1,1,1,1,1,1,1,1]",299,[-2],[-239],[1],[0],[0],[2.0179998874664307],"[""DownClickDemo""]",0,100,space,0.251999855,1,0,1,0,1,0,8,0,8,0,1,7,PilotWJ2,26,Male,2020-07-13_16h04.50.616,AvatarManual,3.2.2,Win32,60,,,,,,,,,,,,,,,,,,,,,,,,,,,,,,,,,,,,,,,,,,,,,,,,,,,,,,,,,,,,,
,,,,,,,,,,,,,,,,,,,,,,,,,,500,400,0,100,3.5,0,"[""stopped"",""stopped"",""stopped"",""stopped"",""stopped"",""stopped"",""stopped"",""stopped"",""stopped"",""stopped"",""stopped"",""stopped"",""stopped"",""stopped"",""stopped"",""stopped"",""stopped"",""down"",""down"",""down"",""down"",""down"",""down"",""down"",""down"",""down"",""down"",""down"",""down"",""down"",""down"",""down"",""down"",""down"",""down"",""down"",""down"",""down"",""down"",""down"",""down"",""down"",""down"",""stopped"",""stopped"",""right"",""right"",""right"",""right"",""right"",""right"",""right"",""right"",""right"",""right"",""right"",""right"",""right"",""right"",""right"",""right"",""right"",""right"",""right"",""right"",""right"",""right"",""right"",""right"",""right"",""right"",""right"",""right"",""right"",""right"",""right"",""right"",""right"",""right"",""right"",""right"",""right"",""right"",""right"",""right"",""right"",""right"",""right"",""right"",""right"",""right"",""right"",""right"",""right"",""right"",""right"",""right"",""right"",""right"",""right"",""right"",""right"",""right"",""right"",""right"",""right"",""right"",""right"",""right"",""right"",""right"",""right"",""right"",""right"",""right"",""right"",""right"",""right"",""right"",""right"",""right""]","[0,0,0,0,0,0,0,0,0,0,0,0,0,0,0,0,0,1,1,1,1,1,1,1,1,1,1,1,1,1,1,1,1,1,1,1,1,1,1,1,1,1,1,0,0,1,1,1,1,1,1,1,1,1,1,1,1,1,1,1,1,1,1,1,1,1,1,1,1,1,1,1,1,1,1,1,1,1,1,1,1,1,1,1,1,1,1,1,1,1,1,1,1,1,1,1,1,1,1,1,1,1,1,1,1,1,1,1,1,1,1,1,1,1,1,1,1,1,1,1,1]",283,[-2],[-239],[1],[0],[0],[1.9500000476837158],"[""DownClickDemo""]",0,100,space,0.217999935,1,0,1,0,1,0,8,0,8,0,1,7,PilotWJ2,26,Male,2020-07-13_16h04.50.616,AvatarManual,3.2.2,Win32,60,,,,,,,,,,,,,,,,,,,,,,,,,,,,,,,,,,,,,,,,,,,,,,,,,,,,,,,,,,,,,
,,,,,,,,,,,,,,,,,,,,,,,,,,500,-400,0,87,3.5,0,"[""stopped"",""stopped"",""stopped"",""stopped"",""stopped"",""stopped"",""stopped"",""stopped"",""stopped"",""stopped"",""stopped"",""stopped"",""stopped"",""stopped"",""stopped"",""stopped"",""stopped"",""stopped"",""stopped"",""stopped"",""stopped"",""stopped"",""stopped"",""stopped"",""stopped"",""stopped"",""stopped"",""stopped"",""stopped"",""stopped"",""stopped"",""stopped"",""stopped"",""stopped"",""stopped"",""stopped"",""stopped"",""down"",""down"",""down"",""down"",""down"",""down"",""down"",""down"",""down"",""down"",""down"",""down"",""down"",""down"",""down"",""down"",""down"",""down"",""down"",""down"",""down"",""down"",""down"",""down"",""down"",""stopped"",""left"",""left"",""left"",""left"",""left"",""left"",""left"",""left"",""left"",""left"",""left"",""left"",""left"",""left"",""left"",""left"",""left"",""left"",""left"",""left"",""left"",""left"",""left"",""left"",""left"",""left"",""left"",""left"",""left"",""left"",""left"",""left"",""left"",""left"",""left"",""left"",""left"",""left"",""left"",""left"",""left"",""left"",""left"",""left"",""left"",""left"",""left"",""left"",""left"",""left"",""left"",""left"",""left"",""left"",""left"",""left"",""left"",""left""]","[0,0,0,0,0,0,0,0,0,0,0,0,0,0,0,0,0,0,0,0,0,0,0,0,0,0,0,0,0,0,0,0,0,0,0,0,0,1,1,1,1,1,1,1,1,1,1,1,1,1,1,1,1,1,1,1,1,1,1,1,1,1,0,1,1,1,1,1,1,1,1,1,1,1,1,1,1,1,1,1,1,1,1,1,1,1,1,1,1,1,1,1,1,1,1,1,1,1,1,1,1,1,1,1,1,1,1,1,1,1,1,1,1,1,1,1,1,1,1,1,1]",617,[-1],[-232],[1],[0],[0],[2.049999952316284],"[""DownClickDemo""]",0,100,space,0.188999891,1,0,1,0,1,0,8,0,8,0,1,7,PilotWJ2,26,Male,2020-07-13_16h04.50.616,AvatarManual,3.2.2,Win32,60,,,,,,,,,,,,,,,,,,,,,,,,,,,,,,,,,,,,,,,,,,,,,,,,,,,,,,,,,,,,,
,,,,,,,,,,,,,,,,,,,,,,,,,,,,,,,,,,,,,,,,,,,,,,1,0,1,0,1,0,,,,,,,PilotWJ2,26,Male,2020-07-13_16h04.50.616,AvatarManual,3.2.2,Win32,60,space,0.19900012,space,0.020999908,300,200,0,const,3.5,71,left,-27,-54,"[-32,-32,-32,-32,-32,-32,-32,-32,-32,-32,-32,-32,-32,-32,-32,-32,-32,-32,-32,-32,-32,-32,-32,-32,-32,-32,-32,-31,-28,-26,-26,-26,-29,-31,-33,-35,-36,-36,-36,-36,-36,-36,-35,-33,-31,-29,-28,-28,-27,-27,-27,-27,-27,-27,-27,-27,-27,-27,-27,-26,-21,-15,-7,-1,3,5,8,11,13,13,13,13,11,10,9,7,5,4,3,1,0,0,-1,-1,-1,-1]","[-48,-48,-48,-48,-48,-48,-48,-48,-48,-48,-48,-48,-48,-48,-48,-48,-48,-48,-48,-48,-48,-48,-48,-48,-48,-48,-48,-47,-40,-24,-8,8,22,33,40,46,49,52,53,54,54,56,60,66,74,81,87,92,96,99,99,99,99,99,99,99,95,88,76,55,31,6,-24,-49,-68,-85,-98,-108,-117,-124,-131,-139,-147,-153,-160,-165,-172,-179,-185,-189,-194,-198,-202,-204,-205,-206]","[0,0,0,0,0,0,0,0,0,0,0,0,0,0,0,0,0,0,0,0,0,0,0,0,0,0,0,0,0,0,0,0,0,0,0,0,0,0,0,0,0,0,0,0,0,0,0,0,0,0,0,1,1,1,1,0,0,0,0,0,0,0,0,0,0,0,0,0,0,0,0,0,0,0,0,0,0,0,0,0,0,0,0,0,0,1]","[0,0,0,0,0,0,0,0,0,0,0,0,0,0,0,0,0,0,0,0,0,0,0,0,0,0,0,0,0,0,0,0,0,0,0,0,0,0,0,0,0,0,0,0,0,0,0,0,0,0,0,0,0,0,0,0,0,0,0,0,0,0,0,0,0,0,0,0,0,0,0,0,0,0,0,0,0,0,0,0,0,0,0,0,0,0]","[0,0,0,0,0,0,0,0,0,0,0,0,0,0,0,0,0,0,0,0,0,0,0,0,0,0,0,0,0,0,0,0,0,0,0,0,0,0,0,0,0,0,0,0,0,0,0,0,0,0,0,0,0,0,0,0,0,0,0,0,0,0,0,0,0,0,0,0,0,0,0,0,0,0,0,0,0,0,0,0,0,0,0,0,0,0]","[0.0009999275207519531,0.01399993896484375,0.03099989891052246,0.04699993133544922,0.06399989128112793,0.08099985122680664,0.0969998836517334,0.11399984359741211,0.12999987602233887,0.14700007438659668,0.1640000343322754,0.1809999942779541,0.1979999542236328,0.21399998664855957,0.23000001907348633,0.24699997901916504,0.26399993896484375,0.28099989891052246,0.2969999313354492,0.31399989128112793,0.3299999237060547,0.3469998836517334,0.3639998435974121,0.3810000419616699,0.39800000190734863,0.4140000343322754,0.4309999942779541,0.4479999542236328,0.46399998664855957,0.4809999465942383,0.497999906539917,0.5139999389648438,0.5299999713897705,0.5479998588562012,0.5639998912811279,0.5809998512268066,0.5980000495910645,0.6139998435974121,0.6310000419616699,0.6480000019073486,0.6640000343322754,0.6809999942779541,0.6979999542236328,0.7139999866485596,0.7300000190734863,0.746999979019165,0.7649998664855957,0.7820000648498535,0.7979998588562012,0.8139998912811279,0.8309998512268066,0.8480000495910645,0.8639998435974121,0.8810000419616699,0.8970000743865967,0.9140000343322754,0.9309999942779541,0.9479999542236328,0.9649999141693115,0.9809999465942383,0.997999906539917,1.0149998664855957,1.0309998989105225,1.0479998588562012,1.065000057220459,1.0809998512268066,1.0980000495910645,1.1150000095367432,1.13100004196167,1.1489999294281006,1.1640000343322754,1.180999994277954,1.1979999542236328,1.2149999141693115,1.2319998741149902,1.247999906539917,1.2639999389648438,1.2809998989105225,1.2979998588562012,1.315000057220459,1.3309998512268066,1.3480000495910645,1.3650000095367432,1.38100004196167,1.3970000743865967,1.4140000343322754]",,,"[""stopped"",""stopped"",""stopped"",""stopped"",""stopped"",""stopped"",""stopped"",""stopped"",""stopped"",""stopped"",""stopped"",""stopped"",""stopped"",""stopped"",""stopped"",""stopped"",""stopped"",""stopped"",""stopped"",""stopped"",""stopped"",""down"",""down"",""down"",""down"",""down"",""down"",""down"",""down"",""down"",""down"",""down"",""down"",""down"",""down"",""down"",""down"",""down"",""down"",""down"",""down"",""down"",""down"",""down"",""down"",""down"",""down"",""stopped"",""stopped"",""left"",""left"",""left"",""left"",""left"",""left"",""left"",""left"",""left"",""left"",""left"",""left"",""left"",""left"",""left"",""left"",""left"",""left"",""left"",""left"",""left"",""left"",""left"",""left"",""left"",""left"",""left"",""left"",""left"",""left"",""left"",""left"",""left"",""left"",""left"",""left"",""left""]","[0,0,0,0,0,0,0,0,0,0,0,0,0,0,0,0,0,0,0,0,0,1,1,1,1,1,1,1,1,1,1,1,1,1,1,1,1,1,1,1,1,1,1,1,1,1,1,0,0,1,1,1,1,1,1,1,1,1,1,1,1,1,1,1,1,1,1,1,1,1,1,1,1,1,1,1,1,1,1,1,1,1,1,1,1,1]",350,"[-3,-3,-3,-3,-3,-3,-3,-3,-3,-3,-3,-3,-3,-3,-3,-3,-3,-3,-3,-3,-3,-3,-3,-3,-3,-3,-3,-3,-3,-3,-3,-3,-3,-3,-3,-3,-3,-3,-3,-3,-3,-4,-6,-8,-13,-19,-23,-31,-37,-41,-44,-46,-48,-49,-50,-50,-50,-50,-50,-50,-50,-50,-50,-50,-50,-50,-50,-50,-50,-50,-50,-50,-50,-50,-50,-50,-50,-50,-50,-50,-50,-50,-50,-50,-50]","[-239,-239,-239,-239,-239,-239,-239,-239,-239,-239,-239,-239,-239,-239,-239,-239,-239,-239,-239,-239,-239,-239,-239,-239,-239,-239,-239,-239,-239,-239,-239,-239,-239,-239,-239,-239,-239,-239,-239,-239,-239,-238,-237,-235,-232,-229,-225,-219,-213,-209,-207,-206,-204,-203,-203,-203,-203,-203,-203,-203,-203,-203,-203,-203,-203,-203,-203,-203,-203,-203,-203,-203,-203,-203,-203,-203,-203,-203,-203,-203,-203,-203,-203,-203,-203]","[0,0,0,0,0,0,0,0,0,0,0,0,0,0,0,0,0,0,0,0,1,1,1,1,1,1,1,1,1,1,1,1,1,1,1,1,1,1,1,1,1,1,1,1,1,1,1,1,1,1,1,1,1,1,1,1,1,1,1,1,1,1,1,1,1,1,1,1,1,1,1,1,1,1,1,1,1,1,1,1,1,1,1,1,1]","[0,0,0,0,0,0,0,0,0,0,0,0,0,0,0,0,0,0,0,0,0,0,0,0,0,0,0,0,0,0,0,0,0,0,0,0,0,0,0,0,0,0,0,0,0,0,0,0,0,0,0,0,0,0,0,0,0,0,0,0,0,0,0,0,0,0,0,0,0,0,0,0,0,0,0,0,0,0,0,0,0,0,0,0,0]","[0,0,0,0,0,0,0,0,0,0,0,0,0,0,0,0,0,0,0,0,0,0,0,0,0,0,0,0,0,0,0,0,0,0,0,0,0,0,0,0,0,0,0,0,0,0,0,0,0,0,0,0,0,0,0,0,0,0,0,0,0,0,0,0,0,0,0,0,0,0,0,0,0,0,0,0,0,0,0,0,0,0,0,0,0]","[0,0.01699995994567871,0.03299999237060547,0.04999995231628418,0.06699991226196289,0.0839998722076416,0.09999990463256836,0.11599993705749512,0.13399982452392578,0.14999985694885254,0.16699981689453125,0.18400001525878906,0.19999980926513672,0.21599984169006348,0.2329998016357422,0.25,0.26599979400634766,0.28299999237060547,0.2999999523162842,0.3169999122619629,0.3339998722076416,0.34999990463256836,0.36699986457824707,0.38299989700317383,0.39999985694885254,0.4159998893737793,0.432999849319458,0.4499998092651367,0.46700000762939453,0.4829998016357422,0.5,0.5159997940063477,0.5329999923706055,0.5490000247955322,0.5669999122619629,0.5829999446868896,0.5999999046325684,0.6169998645782471,0.6329998970031738,0.6499998569488525,0.6659998893737793,0.682999849319458,0.6999998092651367,0.7170000076293945,0.7339999675750732,0.75,0.7679998874664307,0.7839999198913574,0.8009998798370361,0.8179998397827148,0.8339998722076416,0.8509998321533203,0.8669998645782471,0.8839998245239258,0.8999998569488525,0.9169998168945312,0.932999849319458,0.9489998817443848,0.9659998416900635,0.9839999675750732,1,1.0169999599456787,1.0339999198913574,1.0499999523162842,1.066999912261963,1.0829999446868896,1.0999999046325684,1.116999864578247,1.1349999904632568,1.1519999504089355,1.1659998893737793,1.182999849319458,1.1999998092651367,1.2170000076293945,1.2329998016357422,1.25,1.2659997940063477,1.2829999923706055,1.2999999523162842,1.315999984741211,1.3329999446868896,1.3499999046325684,1.366999864578247,1.3839998245239258,1.3999998569488525]","[""downClick"",""downClick"",""downClick"",""downClick"",""downClick"",""downClick"",""downClick"",""downClick"",""downClick"",""downClick"",""downClick"",""downClick"",""downClick"",""downClick"",""downClick"",""downClick"",""downClick"",""downClick"",""downClick"",""downClick"",""downClick"",""downClick"",""downClick"",""downClick"",""downClick"",""downClick"",""downClick"",""downClick"",""downClick"",""downClick"",""downClick"",""downClick"",""downClick"",""downClick"",""downClick"",""downClick"",""downClick"",""downClick"",""downClick"",""downClick"",""downClick"",""downClick"",""downClick"",""downClick"",""downClick"",""downClick"",""leftClick"",""leftClick"",""leftClick"",""leftClick"",""leftClick"",""leftClick"",""leftClick"",""leftClick"",""leftClick"",""leftClick"",""leftClick"",""leftClick"",""leftClick"",""leftClick"",""leftClick"",""leftClick"",""leftClick"",""leftClick"",""leftClick"",""leftClick"",""leftClick"",""leftClick"",""leftClick"",""leftClick"",""leftClick"",""leftClick"",""leftClick"",""leftClick"",""leftClick"",""leftClick"",""leftClick"",""leftClick"",""leftClick"",""leftClick"",""leftClick"",""leftClick"",""leftClick""]",-156.5,9,1,space,0.960000038,4,0,4,0,1,3,,,,,,,,,,,,,,,,,,,
,,,,,,,,,,,,,,,,,,,,,,,,,,,,,,,,,,,,,,,,,,,,,,1,0,1,0,1,0,,,,,,,PilotWJ2,26,Male,2020-07-13_16h04.50.616,AvatarManual,3.2.2,Win32,60,,,,,500,400,0,const,3.5,105,left,-383,-134,"[-4,-4,-4,-4,-4,-4,-4,-4,-4,-4,-4,-4,-4,-4,-4,-4,-4,-4,-4,-4,-4,-4,-4,-4,-4,-13,-38,-96,-156,-211,-260,-289,-316,-337,-348,-352,-354,-354,-354,-357,-360,-363,-367,-371,-376,-381,-383,-383,-383,-383,-383,-383,-383,-383,-383,-383,-376,-360,-333,-295,-246,-204,-166,-135,-112,-94,-78,-68,-62,-58,-55,-53,-47,-40,-33,-29,-26,-24,-20,-14,-7,-1,1,2,2,2,2,2]","[-36,-36,-36,-36,-36,-36,-36,-36,-36,-36,-36,-36,-36,-36,-36,-36,-36,-36,-36,-36,-36,-36,-36,-36,-34,-25,-7,25,51,67,79,85,92,98,101,102,102,102,102,102,102,102,102,102,102,104,104,104,104,104,104,104,104,104,104,104,99,87,69,46,13,-18,-45,-71,-90,-106,-121,-131,-137,-141,-142,-144,-147,-150,-153,-155,-157,-159,-163,-170,-178,-185,-187,-188,-188,-188,-188,-188]","[0,0,0,0,0,0,0,0,0,0,0,0,0,0,0,0,0,0,0,0,0,0,0,0,0,0,0,0,0,0,0,0,0,0,0,0,0,0,0,0,0,0,0,0,0,0,0,0,0,1,1,1,1,0,0,0,0,0,0,0,0,0,0,0,0,0,0,0,0,0,0,0,0,0,0,0,0,0,0,0,0,0,0,0,0,0,0,1]","[0,0,0,0,0,0,0,0,0,0,0,0,0,0,0,0,0,0,0,0,0,0,0,0,0,0,0,0,0,0,0,0,0,0,0,0,0,0,0,0,0,0,0,0,0,0,0,0,0,0,0,0,0,0,0,0,0,0,0,0,0,0,0,0,0,0,0,0,0,0,0,0,0,0,0,0,0,0,0,0,0,0,0,0,0,0,0,0]","[0,0,0,0,0,0,0,0,0,0,0,0,0,0,0,0,0,0,0,0,0,0,0,0,0,0,0,0,0,0,0,0,0,0,0,0,0,0,0,0,0,0,0,0,0,0,0,0,0,0,0,0,0,0,0,0,0,0,0,0,0,0,0,0,0,0,0,0,0,0,0,0,0,0,0,0,0,0,0,0,0,0,0,0,0,0,0,0]","[0,0.016000032424926758,0.032000064849853516,0.04800009727478027,0.06500005722045898,0.0820000171661377,0.0989999771118164,0.11500000953674316,0.13100004196166992,0.14800000190734863,0.16500020027160645,0.18200016021728516,0.19800019264221191,0.21600008010864258,0.23200011253356934,0.2480001449584961,0.2650001049041748,0.2820000648498535,0.2990000247955322,0.315000057220459,0.3320000171661377,0.3489999771118164,0.36500000953674316,0.3819999694824219,0.3990001678466797,0.4160001277923584,0.43200016021728516,0.4480001926422119,0.4650001525878906,0.4830000400543213,0.49900007247924805,0.5160000324249268,0.5329999923706055,0.5490000247955322,0.5659999847412109,0.5820000171661377,0.5989999771118164,0.6150000095367432,0.6310000419616699,0.6490001678466797,0.6660001277923584,0.6830000877380371,0.6990001201629639,0.7160000801086426,0.7330000400543213,0.749000072479248,0.7650001049041748,0.7820000648498535,0.7980000972747803,0.815000057220459,0.8320000171661377,0.8489999771118164,0.8660001754760742,0.8819999694824219,0.8990001678466797,0.9160001277923584,0.9330000877380371,0.9509999752044678,0.9660000801086426,0.9839999675750732,0.999000072479248,1.0160000324249268,1.0329999923706055,1.0490000247955322,1.067000150680542,1.0820000171661377,1.0989999771118164,1.1160001754760742,1.1319999694824219,1.1500000953674316,1.1660001277923584,1.183000087738037,1.2000000476837158,1.2160000801086426,1.2330000400543213,1.25,1.2660000324249268,1.2829999923706055,1.2990000247955322,1.315999984741211,1.3330001831054688,1.3489999771118164,1.3660001754760742,1.383000135421753,1.3990001678466797,1.4150002002716064,1.4320001602172852,1.4490001201629639]",,,"[""stopped"",""stopped"",""stopped"",""stopped"",""stopped"",""stopped"",""stopped"",""stopped"",""stopped"",""stopped"",""stopped"",""stopped"",""stopped"",""stopped"",""stopped"",""stopped"",""stopped"",""stopped"",""down"",""down"",""down"",""down"",""down"",""down"",""down"",""down"",""down"",""down"",""down"",""down"",""down"",""down"",""down"",""down"",""down""]","[0,0,0,0,0,0,0,0,0,0,0,0,0,0,0,0,0,0,1,1,1,1,1,1,1,1,1,1,1,1,1,1,1,1,1]",300,"[3,3,3,3,3,3,3,3,3,3,3,3,3,3,3,3,3,3,3,3,3,3,3,3,3,3,3,3,3,3,3,3,3,3]","[-231,-231,-231,-231,-231,-231,-231,-231,-231,-231,-231,-231,-231,-231,-231,-231,-231,-231,-231,-231,-231,-231,-231,-231,-231,-231,-231,-231,-231,-231,-231,-231,-231,-231]","[0,0,0,0,0,0,0,0,0,0,0,0,0,0,0,0,0,1,1,1,1,1,1,1,1,1,1,1,1,1,1,1,1,1]","[0,0,0,0,0,0,0,0,0,0,0,0,0,0,0,0,0,0,0,0,0,0,0,0,0,0,0,0,0,0,0,0,0,0]","[0,0,0,0,0,0,0,0,0,0,0,0,0,0,0,0,0,0,0,0,0,0,0,0,0,0,0,0,0,0,0,0,0,0]","[0,0.016000032424926758,0.03299999237060547,0.04900002479553223,0.06599998474121094,0.0820000171661377,0.10000014305114746,0.11700010299682617,0.13300013542175293,0.15000009536743164,0.1660001277923584,0.1830000877380371,0.20000004768371582,0.21600008010864258,0.2330000400543213,0.25099992752075195,0.26600003242492676,0.28299999237060547,0.2990000247955322,0.31599998474121094,0.33299994468688965,0.3489999771118164,0.3659999370574951,0.38300013542175293,0.3989999294281006,0.4160001277923584,0.4330000877380371,0.44900012016296387,0.4660000801086426,0.4830000400543213,0.49900007247924805,0.5160000324249268,0.5329999923706055,0.5490000247955322]","[""downClick"",""downClick"",""downClick"",""downClick"",""downClick"",""downClick"",""downClick"",""downClick"",""downClick"",""downClick"",""downClick"",""downClick"",""downClick"",""downClick"",""downClick"",""downClick"",""downClick"",""downClick"",""downClick"",""downClick"",""downClick"",""downClick"",""downClick"",""downClick"",""downClick"",""downClick"",""downClick"",""downClick"",""downClick"",""downClick"",""downClick"",""downClick"",""downClick"",""downClick""]",-383,40.5,1,space,1.101999998,4,0,4,0,1,3,,,,,,,,,,,,,,,,,,,
,,,,,,,,,,,,,,,,,,,,,,,,,,,,,,,,,,,,,,,,,,,,,,1,0,1,0,1,0,,,,,,,PilotWJ2,26,Male,2020-07-13_16h04.50.616,AvatarManual,3.2.2,Win32,60,,,,,400,300,0,const,3.5,79,right,-296,-104,"[-4,-4,-4,-4,-4,-4,-4,-4,-4,-4,-4,-4,-4,-4,-4,-4,-4,-4,-4,-4,-4,-4,-6,-9,-15,-24,-39,-57,-75,-94,-114,-130,-146,-166,-182,-199,-216,-231,-241,-249,-256,-263,-268,-272,-275,-279,-283,-288,-292,-295,-296,-296,-296,-296,-296,-296,-296,-294,-286,-265,-237,-207,-176,-154,-132,-110,-91,-74,-57,-45,-35,-29,-26,-24,-21,-18,-14,-9,-6,-2,0,1,3,5,8,9,10,10,10]","[-41,-41,-41,-41,-41,-41,-41,-41,-41,-41,-41,-41,-41,-41,-41,-41,-41,-41,-41,-41,-41,-41,-41,-39,-34,-25,-13,1,11,23,34,43,49,55,60,64,67,69,71,73,75,77,79,80,82,83,84,87,89,92,94,96,96,96,96,96,96,95,91,79,61,42,20,4,-13,-34,-52,-70,-91,-105,-116,-124,-128,-130,-134,-138,-144,-153,-161,-169,-173,-176,-178,-183,-185,-187,-188,-189,-189]","[0,0,0,0,0,0,0,0,0,0,0,0,0,0,0,0,0,0,0,0,0,0,0,0,0,0,0,0,0,0,0,0,0,0,0,0,0,0,0,0,0,0,0,0,0,0,0,0,0,0,0,0,0,1,1,0,0,0,0,0,0,0,0,0,0,0,0,0,0,0,0,0,0,0,0,0,0,0,0,0,0,0,0,0,0,0,0,0,1]","[0,0,0,0,0,0,0,0,0,0,0,0,0,0,0,0,0,0,0,0,0,0,0,0,0,0,0,0,0,0,0,0,0,0,0,0,0,0,0,0,0,0,0,0,0,0,0,0,0,0,0,0,0,0,0,0,0,0,0,0,0,0,0,0,0,0,0,0,0,0,0,0,0,0,0,0,0,0,0,0,0,0,0,0,0,0,0,0,0]","[0,0,0,0,0,0,0,0,0,0,0,0,0,0,0,0,0,0,0,0,0,0,0,0,0,0,0,0,0,0,0,0,0,0,0,0,0,0,0,0,0,0,0,0,0,0,0,0,0,0,0,0,0,0,0,0,0,0,0,0,0,0,0,0,0,0,0,0,0,0,0,0,0,0,0,0,0,0,0,0,0,0,0,0,0,0,0,0,0]","[0,0.015000104904174805,0.032000064849853516,0.04800009727478027,0.06500005722045898,0.0820000171661377,0.09800004959106445,0.11500000953674316,0.13100004196166992,0.14800000190734863,0.16499996185302734,0.1809999942779541,0.19899988174438477,0.21499991416931152,0.23199987411499023,0.247999906539917,0.2650001049041748,0.2820000648498535,0.2980000972747803,0.315000057220459,0.3320000171661377,0.34800004959106445,0.36500000953674316,0.3819999694824219,0.3989999294281006,0.4159998893737793,0.4330000877380371,0.44899988174438477,0.4649999141693115,0.48199987411499023,0.497999906539917,0.5150001049041748,0.5329999923706055,0.5480000972747803,0.565000057220459,0.5829999446868896,0.5980000495910645,0.6150000095367432,0.6319999694824219,0.6489999294281006,0.6649999618530273,0.681999921798706,0.6989998817443848,0.7149999141693115,0.7319998741149902,0.747999906539917,0.7660000324249268,0.7820000648498535,0.7990000247955322,0.815000057220459,0.8320000171661377,0.8480000495910645,0.8650000095367432,0.8819999694824219,0.8989999294281006,0.9219999313354492,0.9489998817443848,0.9660000801086426,0.9819998741149902,0.999000072479248,1.0160000324249268,1.0329999923706055,1.0490000247955322,1.065999984741211,1.0820000171661377,1.0989999771118164,1.1159999370574951,1.1319999694824219,1.1489999294281006,1.1649999618530273,1.183000087738037,1.1989998817443848,1.2149999141693115,1.2319998741149902,1.249000072479248,1.2660000324249268,1.2829999923706055,1.2990000247955322,1.315999984741211,1.3320000171661377,1.3489999771118164,1.3659999370574951,1.3819999694824219,1.3989999294281006,1.4159998893737793,1.433000087738037,1.4489998817443848,1.4660000801086426,1.4819998741149902]",,,"[""stopped"",""stopped"",""stopped"",""stopped"",""stopped"",""stopped"",""stopped"",""stopped"",""stopped"",""stopped"",""stopped"",""stopped"",""stopped"",""stopped"",""stopped"",""stopped"",""stopped"",""stopped"",""stopped"",""down"",""down"",""down"",""down"",""down"",""down"",""down"",""down"",""down"",""down"",""down"",""down"",""down"",""down"",""down"",""down"",""down"",""down"",""down"",""down"",""down"",""down"",""stopped"",""stopped"",""right"",""right"",""right"",""right"",""right"",""right"",""right"",""right"",""right"",""right"",""right"",""right"",""right"",""right"",""right"",""right"",""right"",""right"",""right"",""right"",""right"",""right"",""right"",""right"",""right"",""right"",""right"",""right"",""right"",""right"",""right"",""right"",""right"",""right"",""right"",""right"",""right"",""right"",""right"",""right"",""right"",""right"",""right"",""right"",""right"",""right"",""right"",""right"",""right"",""right"",""right"",""right"",""right"",""right"",""right"",""right"",""right"",""right"",""right"",""right"",""right"",""right"",""right"",""right"",""right"",""right"",""right"",""right"",""right"",""right"",""right"",""right"",""right"",""right"",""right"",""right"",""right"",""right""]","[0,0,0,0,0,0,0,0,0,0,0,0,0,0,0,0,0,0,0,1,1,1,1,1,1,1,1,1,1,1,1,1,1,1,1,1,1,1,1,1,1,0,0,1,1,1,1,1,1,1,1,1,1,1,1,1,1,1,1,1,1,1,1,1,1,1,1,1,1,1,1,1,1,1,1,1,1,1,1,1,1,1,1,1,1,1,1,1,1,1,1,1,1,1,1,1,1,1,1,1,1,1,1,1,1,1,1,1,1,1,1,1,1,1,1,1,1,1,1,1,1]",317,"[2,2,2,2,2,2,2,2,2,2,2,2,2,2,2,2,2,2,2,2,2,2,2,2,2,2,2,2,2,2,2,2,2,2,2,2,2,2,2,5,11,20,28,34,37,38,38,38,38,38,38,38,38,38,38,38,38,38,38,38,38,38,38,38,38,38,38,38,38,38,38,38,38,38,38,38,38,38,38,38,38,38,38,38,38,38,38,38,38,38,38,38,38,38,38,38,38,38,38,38,38,38,38,38,38,38,38,38,38,38,38,38,38,38,38,38,38,38,38,38]","[-228,-228,-228,-228,-228,-228,-228,-228,-228,-228,-228,-228,-228,-228,-228,-228,-228,-228,-228,-228,-228,-228,-228,-228,-228,-228,-228,-228,-228,-228,-228,-228,-228,-228,-228,-228,-228,-228,-228,-223,-215,-206,-199,-194,-191,-191,-190,-190,-190,-190,-190,-190,-190,-190,-190,-190,-190,-190,-190,-190,-190,-190,-190,-190,-190,-190,-190,-190,-190,-190,-190,-190,-190,-190,-190,-190,-190,-190,-190,-190,-190,-190,-190,-190,-190,-190,-190,-190,-190,-190,-190,-190,-190,-190,-190,-190,-190,-190,-190,-190,-190,-190,-190,-190,-190,-190,-190,-190,-190,-190,-190,-190,-190,-190,-190,-190,-190,-190,-190,-190]","[0,0,0,0,0,0,0,0,0,0,0,0,0,0,0,0,0,0,1,1,1,1,1,1,1,1,1,1,1,1,1,1,1,1,1,1,1,1,1,1,1,1,1,1,1,1,1,1,1,1,1,1,1,1,1,1,1,1,1,1,1,1,1,1,1,1,1,1,1,1,1,1,1,1,1,1,1,1,1,1,1,1,1,1,1,1,1,1,1,1,1,1,1,1,1,1,1,1,1,1,1,1,1,1,1,1,1,1,1,1,1,1,1,1,1,1,1,1,1,1]","[0,0,0,0,0,0,0,0,0,0,0,0,0,0,0,0,0,0,0,0,0,0,0,0,0,0,0,0,0,0,0,0,0,0,0,0,0,0,0,0,0,0,0,0,0,0,0,0,0,0,0,0,0,0,0,0,0,0,0,0,0,0,0,0,0,0,0,0,0,0,0,0,0,0,0,0,0,0,0,0,0,0,0,0,0,0,0,0,0,0,0,0,0,0,0,0,0,0,0,0,0,0,0,0,0,0,0,0,0,0,0,0,0,0,0,0,0,0,0,0]","[0,0,0,0,0,0,0,0,0,0,0,0,0,0,0,0,0,0,0,0,0,0,0,0,0,0,0,0,0,0,0,0,0,0,0,0,0,0,0,0,0,0,0,0,0,0,0,0,0,0,0,0,0,0,0,0,0,0,0,0,0,0,0,0,0,0,0,0,0,0,0,0,0,0,0,0,0,0,0,0,0,0,0,0,0,0,0,0,0,0,0,0,0,0,0,0,0,0,0,0,0,0,0,0,0,0,0,0,0,0,0,0,0,0,0,0,0,0,0,0]","[0,0.016000032424926758,0.03299999237060547,0.04900002479553223,0.06699991226196289,0.08299994468688965,0.09999990463256836,0.11599993705749512,0.13299989700317383,0.14899992942810059,0.16700005531311035,0.1830000877380371,0.20000004768371582,0.22099995613098145,0.2330000400543213,0.25,0.26600003242492676,0.28299999237060547,0.2999999523162842,0.31599998474121094,0.3320000171661377,0.34999990463256836,0.3659999370574951,0.38299989700317383,0.3989999294281006,0.4159998893737793,0.4330000877380371,0.44900012016296387,0.4660000801086426,0.4830000400543213,0.49900007247924805,0.5169999599456787,0.5320000648498535,0.5490000247955322,0.5669999122619629,0.5820000171661377,0.5999999046325684,0.6159999370574951,0.6329998970031738,0.6500000953674316,0.6670000553131104,0.6840000152587891,0.7009999752044678,0.7179999351501465,0.7339999675750732,0.75,0.7669999599456787,0.7829999923706055,0.7990000247955322,0.8169999122619629,0.8329999446868896,0.8499999046325684,0.8659999370574951,0.8829998970031738,0.9000000953674316,0.9159998893737793,0.9330000877380371,0.9490001201629639,0.9660000801086426,0.9839999675750732,0.999000072479248,1.0160000324249268,1.0339999198913574,1.0499999523162842,1.066999912261963,1.0829999446868896,1.0999999046325684,1.1159999370574951,1.1329998970031738,1.1500000953674316,1.1659998893737793,1.183000087738037,1.2000000476837158,1.2160000801086426,1.2330000400543213,1.249000072479248,1.2669999599456787,1.2829999923706055,1.2990000247955322,1.315999984741211,1.3329999446868896,1.3499999046325684,1.3659999370574951,1.3829998970031738,1.3989999294281006,1.4179999828338623,1.434000015258789,1.4500000476837158,1.4660000801086426,1.4830000400543213,1.499000072479248,1.5160000324249268,1.5329999923706055,1.5490000247955322,1.566999912261963,1.5829999446868896,1.5999999046325684,1.6170001029968262,1.6319999694824219,1.6500000953674316,1.6670000553131104,1.683000087738037,1.7000000476837158,1.7239999771118164,1.7420001029968262,1.7669999599456787,1.7839999198913574,1.7990000247955322,1.8229999542236328,1.8499999046325684,1.8680000305175781,1.8829998970031738,1.9159998893737793,1.933000087738037,1.9490001201629639,1.9670000076293945,1.9830000400543213,2,2.0169999599456787,2.0329999923706055]","[""downClick"",""downClick"",""downClick"",""downClick"",""downClick"",""downClick"",""downClick"",""downClick"",""downClick"",""downClick"",""downClick"",""downClick"",""downClick"",""downClick"",""downClick"",""downClick"",""downClick"",""downClick"",""downClick"",""downClick"",""downClick"",""downClick"",""downClick"",""downClick"",""downClick"",""downClick"",""downClick"",""downClick"",""downClick"",""downClick"",""downClick"",""downClick"",""downClick"",""downClick"",""downClick"",""downClick"",""downClick"",""downClick"",""downClick"",""downClick"",""rightClick"",""rightClick"",""rightClick"",""rightClick"",""rightClick"",""rightClick"",""rightClick"",""rightClick"",""rightClick"",""rightClick"",""rightClick"",""rightClick"",""rightClick"",""rightClick"",""rightClick"",""rightClick"",""rightClick"",""rightClick"",""rightClick"",""rightClick"",""rightClick"",""rightClick"",""rightClick"",""rightClick"",""rightClick"",""rightClick"",""rightClick"",""rightClick"",""rightClick"",""rightClick"",""rightClick"",""rightClick"",""rightClick"",""rightClick"",""rightClick"",""rightClick"",""rightClick"",""rightClick"",""rightClick"",""rightClick"",""rightClick"",""rightClick"",""rightClick"",""rightClick"",""rightClick"",""rightClick"",""rightClick"",""rightClick"",""rightClick"",""rightClick"",""rightClick"",""rightClick"",""rightClick"",""rightClick"",""rightClick"",""rightClick"",""rightClick"",""rightClick"",""rightClick"",""rightClick"",""rightClick"",""rightClick"",""rightClick"",""rightClick"",""rightClick"",""rightClick"",""rightClick"",""rightClick"",""rightClick"",""rightClick"",""rightClick"",""rightClick"",""rightClick"",""rightClick"",""rightClick"",""rightClick"",""rightClick"",""rightClick""]",-23,23,0,space,0.809999943,4,0,4,0,1,3,,,,,,,,,,,,,,,,,,,
,,,,,,,,,,,,,,,,,,,,,,,,,,,,,,,,,,,,,,,,,,,,,,1,0,1,0,1,0,,,,,,,PilotWJ2,26,Male,2020-07-13_16h04.50.616,AvatarManual,3.2.2,Win32,60,,,,,200,100,0,const,3.5,130,right,-9,-42,"[11,11,11,11,11,11,11,11,11,11,11,11,11,11,11,11,11,11,11,9,5,1,-3,-4,-6,-7,-8,-8,-8,-8,-9,-9,-9,-9,-9,-9,-9,-9,-9,-9,-9,-9,-9,-9,-9,-7,-6,-2,3,7,10,11,13,15,17,19,20,20,20,21,21,21,21,21,21,21,21,21,21,21,21,21,21]","[11,11,11,11,11,11,11,11,11,11,11,11,11,11,11,11,11,16,30,47,66,79,88,94,99,102,104,105,105,105,105,105,105,105,105,105,105,105,105,105,105,105,105,105,100,89,71,49,21,-4,-32,-56,-77,-101,-116,-128,-137,-143,-148,-155,-161,-167,-171,-175,-179,-183,-185,-185,-185,-185,-185,-185,-186]","[0,0,0,0,0,0,0,0,0,0,0,0,0,0,0,0,0,0,0,0,0,0,0,0,0,0,0,0,0,0,0,0,0,0,0,0,0,0,1,1,1,1,0,0,0,0,0,0,0,0,0,0,0,0,0,0,0,0,0,0,0,0,0,0,0,0,0,0,0,0,0,0,1]","[0,0,0,0,0,0,0,0,0,0,0,0,0,0,0,0,0,0,0,0,0,0,0,0,0,0,0,0,0,0,0,0,0,0,0,0,0,0,0,0,0,0,0,0,0,0,0,0,0,0,0,0,0,0,0,0,0,0,0,0,0,0,0,0,0,0,0,0,0,0,0,0,0]","[0,0,0,0,0,0,0,0,0,0,0,0,0,0,0,0,0,0,0,0,0,0,0,0,0,0,0,0,0,0,0,0,0,0,0,0,0,0,0,0,0,0,0,0,0,0,0,0,0,0,0,0,0,0,0,0,0,0,0,0,0,0,0,0,0,0,0,0,0,0,0,0,0]","[0,0.015999794006347656,0.031999826431274414,0.048999786376953125,0.06599998474121094,0.0820000171661377,0.09799981117248535,0.11500000953674316,0.13199996948242188,0.14800000190734863,0.16499996185302734,0.1809999942779541,0.1979999542236328,0.21499991416931152,0.23099994659423828,0.247999906539917,0.26599979400634766,0.2819998264312744,0.2989997863769531,0.31599998474121094,0.3320000171661377,0.3489999771118164,0.3659999370574951,0.3819999694824219,0.3989999294281006,0.4159998893737793,0.43199992179870605,0.44899988174438477,0.4649999141693115,0.48199987411499023,0.49899983406066895,0.5159997940063477,0.5319998264312744,0.5489997863769531,0.5649998188018799,0.5820000171661377,0.5989999771118164,0.6150000095367432,0.6319999694824219,0.6489999294281006,0.6659998893737793,0.682999849319458,0.6989998817443848,0.7159998416900635,0.7329998016357422,0.748999834060669,0.7659997940063477,0.7829999923706055,0.7999999523162842,0.8159999847412109,0.8320000171661377,0.8499999046325684,0.8659999370574951,0.8819999694824219,0.8999998569488525,0.9159998893737793,0.932999849319458,0.9499998092651367,0.9649999141693115,0.9829998016357422,1,1.0159997940063477,1.0329999923706055,1.0489997863769531,1.065999984741211,1.0829999446868896,1.0989999771118164,1.1150000095367432,1.1319999694824219,1.1489999294281006,1.1659998893737793,1.181999921798706,1.1989998817443848]",,,"[""stopped"",""stopped"",""stopped"",""stopped"",""stopped"",""stopped"",""stopped"",""stopped"",""stopped"",""stopped"",""stopped"",""stopped"",""stopped"",""stopped"",""stopped"",""stopped"",""stopped"",""stopped"",""stopped"",""down"",""down"",""down"",""down"",""down"",""down"",""down"",""down"",""down"",""down"",""down"",""down"",""down"",""down"",""down"",""down"",""down"",""down"",""down"",""down"",""down"",""down"",""down"",""down"",""down"",""down"",""down"",""stopped"",""stopped"",""stopped"",""stopped"",""right"",""right"",""right"",""right"",""right"",""right"",""right"",""right"",""right"",""right"",""right"",""right"",""right"",""right"",""right"",""right"",""right"",""right"",""right""]","[0,0,0,0,0,0,0,0,0,0,0,0,0,0,0,0,0,0,0,1,1,1,1,1,1,1,1,1,1,1,1,1,1,1,1,1,1,1,1,1,1,1,1,1,1,1,0,0,0,0,1,1,1,1,1,1,1,1,1,1,1,1,1,1,1,1,1,1,1]",316,"[2,2,2,2,2,2,2,2,2,2,2,2,2,2,2,2,2,2,2,2,2,2,2,2,2,2,2,2,2,2,2,2,2,2,2,2,2,2,2,2,2,2,2,4,10,21,30,37,40,42,43,43,43,43,43,43,43,43,43,43,43,43,43,43,43,43,43,43]","[-241,-241,-241,-241,-241,-241,-241,-241,-241,-241,-241,-241,-241,-241,-241,-241,-241,-241,-241,-241,-241,-241,-241,-241,-241,-241,-241,-241,-241,-241,-241,-241,-241,-241,-241,-241,-241,-241,-241,-241,-241,-241,-241,-240,-236,-229,-223,-219,-216,-215,-214,-214,-214,-214,-214,-214,-214,-214,-214,-214,-214,-214,-214,-214,-214,-214,-214,-214]","[0,0,0,0,0,0,0,0,0,0,0,0,0,0,0,0,0,0,1,1,1,1,1,1,1,1,1,1,1,1,1,1,1,1,1,1,1,1,1,1,1,1,1,1,1,1,1,1,1,1,1,1,1,1,1,1,1,1,1,1,1,1,1,1,1,1,1,1]","[0,0,0,0,0,0,0,0,0,0,0,0,0,0,0,0,0,0,0,0,0,0,0,0,0,0,0,0,0,0,0,0,0,0,0,0,0,0,0,0,0,0,0,0,0,0,0,0,0,0,0,0,0,0,0,0,0,0,0,0,0,0,0,0,0,0,0,0]","[0,0,0,0,0,0,0,0,0,0,0,0,0,0,0,0,0,0,0,0,0,0,0,0,0,0,0,0,0,0,0,0,0,0,0,0,0,0,0,0,0,0,0,0,0,0,0,0,0,0,0,0,0,0,0,0,0,0,0,0,0,0,0,0,0,0,0,0]","[0,0.016000032424926758,0.03399991989135742,0.04999995231628418,0.06699991226196289,0.0840001106262207,0.09999990463256836,0.11700010299682617,0.13400006294250488,0.15000009536743164,0.16700005531311035,0.18400001525878906,0.20000004768371582,0.21600008010864258,0.23399996757507324,0.25,0.2669999599456787,0.28299999237060547,0.2999999523162842,0.3169999122619629,0.33299994468688965,0.34999990463256836,0.3659999370574951,0.38299989700317383,0.3989999294281006,0.4160001277923584,0.4330000877380371,0.4500000476837158,0.46700000762939453,0.4830000400543213,0.5,0.5169999599456787,0.5329999923706055,0.5499999523162842,0.5659999847412109,0.5829999446868896,0.5999999046325684,0.6159999370574951,0.6329998970031738,0.6500000953674316,0.6670000553131104,0.6830000877380371,0.7000000476837158,0.7170000076293945,0.7339999675750732,0.750999927520752,0.7669999599456787,0.7839999198913574,0.8010001182556152,0.818000078201294,0.8340001106262207,0.8489999771118164,0.8670001029968262,0.8829998970031738,0.9000000953674316,0.9170000553131104,0.9340000152587891,0.9500000476837158,0.9670000076293945,0.9830000400543213,1,1.0169999599456787,1.0329999923706055,1.0499999523162842,1.066999912261963,1.0850000381469727,1.1010000705718994,1.1170001029968262]","[""downClick"",""downClick"",""downClick"",""downClick"",""downClick"",""downClick"",""downClick"",""downClick"",""downClick"",""downClick"",""downClick"",""downClick"",""downClick"",""downClick"",""downClick"",""downClick"",""downClick"",""downClick"",""downClick"",""downClick"",""downClick"",""downClick"",""downClick"",""downClick"",""downClick"",""downClick"",""downClick"",""downClick"",""downClick"",""downClick"",""downClick"",""downClick"",""downClick"",""downClick"",""downClick"",""downClick"",""downClick"",""downClick"",""downClick"",""downClick"",""downClick"",""downClick"",""downClick"",""downClick"",""downClick"",""rightClick"",""rightClick"",""rightClick"",""rightClick"",""rightClick"",""rightClick"",""rightClick"",""rightClick"",""rightClick"",""rightClick"",""rightClick"",""rightClick"",""rightClick"",""rightClick"",""rightClick"",""rightClick"",""rightClick"",""rightClick"",""rightClick""]",57.5,5.5,1,space,1.146000147,4,0,4,0,1,3,,,,,,,,,,,,,,,,,,,
,,,,,,,,,,,,,,,,,,,,,,,,,,,,,,,,,,,,,,,,,,,,,,1,0,1,0,1,0,,,,,,,PilotWJ2,26,Male,2020-07-13_16h04.50.616,AvatarManual,3.2.2,Win32,60,,,,,,,,,,,,,,,,,,,,,,,,,,,,,,,,,,,,,,,,,,,space,1.393000126,"[22,22,22,22,22,22,22,22,22,22,22,22,22,22,22,22,22,22,22,22,22,22,21,20,18,17,16,16,16,16,16,16,16,16,16,16]","[-68,-68,-68,-68,-68,-68,-68,-68,-68,-68,-68,-68,-68,-68,-68,-68,-68,-68,-68,-68,-68,-68,-68,-68,-68,-68,-68,-68,-68,-68,-68,-68,-68,-68,-68,-68]","[0,0,0,0,0,0,0,0,0,0,0,0,0,0,0,0,0,0,0,0,0,0,0,0,0,0,0,0,0,0,0,0,0,0,0,0]","[0,0,0,0,0,0,0,0,0,0,0,0,0,0,0,0,0,0,0,0,0,0,0,0,0,0,0,0,0,0,0,0,0,0,0,0]","[0,0,0,0,0,0,0,0,0,0,0,0,0,0,0,0,0,0,0,0,0,0,0,0,0,0,0,0,0,0,0,0,0,0,0,0]","[0.0009999275207519531,0.020999908447265625,0.04699993133544922,0.06299996376037598,0.07899999618530273,0.09599995613098145,0.11299991607666016,0.12999987602233887,0.14599990844726562,0.16299986839294434,0.17999982833862305,0.19700002670288086,0.21300005912780762,0.23000001907348633,0.24600005149841309,0.26199984550476074,0.27900004386901855,0.29600000381469727,0.312999963760376,0.3299999237060547,0.34599995613098145,0.36299991607666016,0.37999987602233887,0.3969998359680176,0.41299986839294434,0.4289999008178711,0.4459998607635498,0.4630000591278076,0.4789998531341553,0.4960000514984131,0.5130000114440918,0.5290000438690186,0.5460000038146973,0.562999963760376,0.5799999237060547,0.5959999561309814]",space,0.569000006,300,0,8,0,8,0,1,7,
,,,,,,,,,,,,,,,,,,,,,,,,,,,,,,,,,,,,,,,,,,,,,,1,0,1,0,1,0,,,,,,,PilotWJ2,26,Male,2020-07-13_16h04.50.616,AvatarManual,3.2.2,Win32,60,,,,,,,,,,,,,,,,,,,,,,,,,,,,,,,,,,,,,,,,,,,,,"[16,16,16,16,16,16,16,16,16,16,16,16,16,16,16,16,16,16,16,16,16,16,16,16,16,16,16,16,16,16,16,16,16,16,16,16,16,16,16,16,16,16]","[-68,-68,-68,-68,-68,-68,-68,-68,-68,-68,-68,-68,-68,-68,-68,-68,-68,-68,-68,-68,-68,-68,-68,-68,-68,-68,-68,-68,-68,-68,-68,-68,-68,-68,-68,-68,-68,-68,-68,-68,-68,-68]","[0,0,0,0,0,0,0,0,0,0,0,0,0,0,0,0,0,0,0,0,0,0,0,0,0,0,0,0,0,0,0,0,0,0,0,0,0,0,0,0,0,0]","[0,0,0,0,0,0,0,0,0,0,0,0,0,0,0,0,0,0,0,0,0,0,0,0,0,0,0,0,0,0,0,0,0,0,0,0,0,0,0,0,0,0]","[0,0,0,0,0,0,0,0,0,0,0,0,0,0,0,0,0,0,0,0,0,0,0,0,0,0,0,0,0,0,0,0,0,0,0,0,0,0,0,0,0,0]","[0,0.019999980926513672,0.04799985885620117,0.06499981880187988,0.08099985122680664,0.09799981117248535,0.11500000953674316,0.13199996948242188,0.14800000190734863,0.1639997959136963,0.18199992179870605,0.1979999542236328,0.21499991416931152,0.23199987411499023,0.247999906539917,0.2649998664855957,0.28099989891052246,0.29799985885620117,0.31399989128112793,0.33099985122680664,0.34799981117248535,0.36500000953674316,0.3819999694824219,0.39800000190734863,0.41499996185302734,0.43199992179870605,0.4479999542236328,0.4649999141693115,0.4809999465942383,0.497999906539917,0.5139999389648438,0.5309998989105225,0.5479998588562012,0.5649998188018799,0.5819997787475586,0.5979998111724854,0.6150000095367432,0.6319999694824219,0.6480000019073486,0.6639997959136963,0.6809999942779541,0.6979999542236328]",space,0.671000004,300,0,8,0,8,0,1,7,
,,,,,,,,,,,,,,,,,,,,,,,,,,,,,,,,,,,,,,,,,,,,,,1,0,1,0,1,0,,,,,,,PilotWJ2,26,Male,2020-07-13_16h04.50.616,AvatarManual,3.2.2,Win32,60,,,,,,,,,,,,,,,,,,,,,,,,,,,,,,,,,,,,,,,,,,,,,"[16,16,16,16,16,16,16,16,16,16,16,16,16,16,16,16,16,16,16,16,16,16,16,16,16,16,16,16,16,16,16,16,16,16,16,16,16,16,16]","[-68,-68,-68,-68,-68,-68,-68,-68,-68,-68,-68,-68,-68,-68,-68,-68,-68,-68,-68,-68,-68,-68,-68,-68,-68,-68,-68,-68,-68,-68,-68,-68,-68,-68,-68,-68,-68,-68,-68]","[0,0,0,0,0,0,0,0,0,0,0,0,0,0,0,0,0,0,0,0,0,0,0,0,0,0,0,0,0,0,0,0,0,0,0,0,0,0,0]","[0,0,0,0,0,0,0,0,0,0,0,0,0,0,0,0,0,0,0,0,0,0,0,0,0,0,0,0,0,0,0,0,0,0,0,0,0,0,0]","[0,0,0,0,0,0,0,0,0,0,0,0,0,0,0,0,0,0,0,0,0,0,0,0,0,0,0,0,0,0,0,0,0,0,0,0,0,0,0]","[0,0.020999908447265625,0.04900002479553223,0.06599998474121094,0.08299994468688965,0.0989999771118164,0.11599993705749512,0.13299989700317383,0.14899992942810059,0.1660001277923584,0.1830000877380371,0.19900012016296387,0.21600008010864258,0.23200011253356934,0.24900007247924805,0.26600003242492676,0.2820000648498535,0.2990000247955322,0.31599998474121094,0.33299994468688965,0.3489999771118164,0.36500000953674316,0.3819999694824219,0.40000009536743164,0.4160001277923584,0.4330000877380371,0.44900012016296387,0.4660000801086426,0.4830000400543213,0.49900007247924805,0.5160000324249268,0.5329999923706055,0.5499999523162842,0.5659999847412109,0.5820000171661377,0.5989999771118164,0.6159999370574951,0.6329998970031738,0.6500000953674316]",space,0.623000145,500,0,8,0,8,0,1,7,
,,,,,,,,,,,,,,,,,,,,,,,,,,,,,,,,,,,,,,,,,,,,,,1,0,1,0,1,0,,,,,,,PilotWJ2,26,Male,2020-07-13_16h04.50.616,AvatarManual,3.2.2,Win32,60,,,,,,,,,,,,,,,,,,,,,,,,,,,,,,,,,,,,,,,,,,,,,"[16,16,16,16,16,16,16,16,16,16,16,16,16,16,16,16,16,16,16,16,16,16,16,16,16,16,16,16,16,16,16,16,16,16,16,16,16,16]","[-68,-68,-68,-68,-68,-68,-68,-68,-68,-68,-68,-68,-68,-68,-68,-68,-68,-68,-68,-68,-68,-68,-68,-68,-68,-68,-68,-68,-68,-68,-68,-68,-68,-68,-68,-68,-68,-68]","[0,0,0,0,0,0,0,0,0,0,0,0,0,0,0,0,0,0,0,0,0,0,0,0,0,0,0,0,0,0,0,0,0,0,0,0,0,0]","[0,0,0,0,0,0,0,0,0,0,0,0,0,0,0,0,0,0,0,0,0,0,0,0,0,0,0,0,0,0,0,0,0,0,0,0,0,0]","[0,0,0,0,0,0,0,0,0,0,0,0,0,0,0,0,0,0,0,0,0,0,0,0,0,0,0,0,0,0,0,0,0,0,0,0,0,0]","[0,0.023000001907348633,0.04900002479553223,0.06500005722045898,0.0820000171661377,0.09800004959106445,0.11500000953674316,0.13100004196166992,0.14800000190734863,0.16499996185302734,0.1809999942779541,0.1979999542236328,0.21499991416931152,0.23099994659423828,0.247999906539917,0.26399993896484375,0.2820000648498535,0.2990000247955322,0.31399989128112793,0.33100008964538574,0.34800004959106445,0.36500000953674316,0.3819999694824219,0.39800000190734863,0.4140000343322754,0.4309999942779541,0.4479999542236328,0.4649999141693115,0.4809999465942383,0.497999906539917,0.5150001049041748,0.5309998989105225,0.5480000972747803,0.565000057220459,0.5810000896453857,0.5989999771118164,0.6150000095367432,0.6310000419616699]",space,0.608999968,200,0,8,0,8,0,1,7,
,,,,,,,,,,,,,,,,,,,,,,,,,,,,,,,,,,,,,,,,,,,,,,1,0,1,0,1,0,,,,,,,PilotWJ2,26,Male,2020-07-13_16h04.50.616,AvatarManual,3.2.2,Win32,60,,,,,,,,,,,,,,,,,,,,,,,,,,,,,,,,,,,,,,,,,,,,,"[16,16,16,16,16,16,16,16,16,16,16,16,16,16,16,16,16,16,16,16,16,16,16,16,16,16,16,16,16,16,16,16,16,16,16,16,16,16]","[-68,-68,-68,-68,-68,-68,-68,-68,-68,-68,-68,-68,-68,-68,-68,-68,-68,-68,-68,-68,-68,-68,-68,-68,-68,-68,-68,-68,-68,-68,-68,-68,-68,-68,-68,-68,-68,-68]","[0,0,0,0,0,0,0,0,0,0,0,0,0,0,0,0,0,0,0,0,0,0,0,0,0,0,0,0,0,0,0,0,0,0,0,0,0,0]","[0,0,0,0,0,0,0,0,0,0,0,0,0,0,0,0,0,0,0,0,0,0,0,0,0,0,0,0,0,0,0,0,0,0,0,0,0,0]","[0,0,0,0,0,0,0,0,0,0,0,0,0,0,0,0,0,0,0,0,0,0,0,0,0,0,0,0,0,0,0,0,0,0,0,0,0,0]","[0,0.020999908447265625,0.04900002479553223,0.06599998474121094,0.08299994468688965,0.0989999771118164,0.11700010299682617,0.13300013542175293,0.14899992942810059,0.1660001277923584,0.1830000877380371,0.19900012016296387,0.21600008010864258,0.2330000400543213,0.25,0.26600003242492676,0.2820000648498535,0.2990000247955322,0.31599998474121094,0.3320000171661377,0.3489999771118164,0.3659999370574951,0.3819999694824219,0.40000009536743164,0.41700005531311035,0.4330000877380371,0.4500000476837158,0.4660000801086426,0.4830000400543213,0.5,0.5160000324249268,0.5329999923706055,0.5499999523162842,0.5659999847412109,0.5820000171661377,0.5999999046325684,0.6159999370574951,0.6330001354217529]",space,0.610000134,200,0,8,0,8,0,1,7,
,,,,,,,,,,,,,,,,,,,,,,,,,,,,,,,,,,,,,,,,,,,,,,1,0,1,0,1,0,,,,,,,PilotWJ2,26,Male,2020-07-13_16h04.50.616,AvatarManual,3.2.2,Win32,60,,,,,,,,,,,,,,,,,,,,,,,,,,,,,,,,,,,,,,,,,,,,,"[16,16,16,16,16,16,16,16,16,16,16,16,16,16,16,16,16,16,16,16,16,16,16,16,16,16,16,16,16,16,16,16,16,16,16,16]","[-68,-68,-68,-68,-68,-68,-68,-68,-68,-68,-68,-68,-68,-68,-68,-68,-68,-68,-68,-68,-68,-68,-68,-68,-68,-68,-68,-68,-68,-68,-68,-68,-68,-68,-68,-68]","[0,0,0,0,0,0,0,0,0,0,0,0,0,0,0,0,0,0,0,0,0,0,0,0,0,0,0,0,0,0,0,0,0,0,0,0]","[0,0,0,0,0,0,0,0,0,0,0,0,0,0,0,0,0,0,0,0,0,0,0,0,0,0,0,0,0,0,0,0,0,0,0,0]","[0,0,0,0,0,0,0,0,0,0,0,0,0,0,0,0,0,0,0,0,0,0,0,0,0,0,0,0,0,0,0,0,0,0,0,0]","[0,0.14400005340576172,0.182999849319458,0.19899988174438477,0.21499991416931152,0.23199987411499023,0.24900007247924805,0.26600003242492676,0.2820000648498535,0.2990000247955322,0.315000057220459,0.33299994468688965,0.3489999771118164,0.36500000953674316,0.3819999694824219,0.3989999294281006,0.41499996185302734,0.43199992179870605,0.44899988174438477,0.4659998416900635,0.48199987411499023,0.49900007247924805,0.5160000324249268,0.5320000648498535,0.5490000247955322,0.5659999847412109,0.5820000171661377,0.5989999771118164,0.6150000095367432,0.6319999694824219,0.6489999294281006,0.6649999618530273,0.681999921798706,0.6989998817443848,0.7149999141693115,0.7330000400543213]",space,0.583999872,400,0,8,0,8,0,1,7,
,,,,,,,,,,,,,,,,,,,,,,,,,,,,,,,,,,,,,,,,,,,,,,1,0,1,0,1,0,,,,,,,PilotWJ2,26,Male,2020-07-13_16h04.50.616,AvatarManual,3.2.2,Win32,60,,,,,,,,,,,,,,,,,,,,,,,,,,,,,,,,,,,,,,,,,,,,,"[16,16,16,16,16,16,16,16,16,16,16,16,16,16,16,16,16,16,16,16,16,16,16,16,16,16,16,16,16,16,16,16,16,16,16,16,16,16,16,16,16]","[-68,-68,-68,-68,-68,-68,-68,-68,-68,-68,-68,-68,-68,-68,-68,-68,-68,-68,-68,-68,-68,-68,-68,-68,-68,-68,-68,-68,-68,-68,-68,-68,-68,-68,-68,-68,-68,-68,-68,-68,-68]","[0,0,0,0,0,0,0,0,0,0,0,0,0,0,0,0,0,0,0,0,0,0,0,0,0,0,0,0,0,0,0,0,0,0,0,0,0,0,0,0,0]","[0,0,0,0,0,0,0,0,0,0,0,0,0,0,0,0,0,0,0,0,0,0,0,0,0,0,0,0,0,0,0,0,0,0,0,0,0,0,0,0,0]","[0,0,0,0,0,0,0,0,0,0,0,0,0,0,0,0,0,0,0,0,0,0,0,0,0,0,0,0,0,0,0,0,0,0,0,0,0,0,0,0,0]","[0,0.02200007438659668,0.04800009727478027,0.06500005722045898,0.08100008964538574,0.09800004959106445,0.11500000953674316,0.13100004196166992,0.14800000190734863,0.16499996185302734,0.1809999942779541,0.1979999542236328,0.21499991416931152,0.23199987411499023,0.247999906539917,0.2650001049041748,0.2820000648498535,0.2980000972747803,0.315000057220459,0.33100008964538574,0.34800004959106445,0.36500000953674316,0.3819999694824219,0.39800000190734863,0.41499996185302734,0.43199992179870605,0.4479999542236328,0.4649999141693115,0.4809999465942383,0.49900007247924805,0.5139999389648438,0.5309998989105225,0.5480000972747803,0.5639998912811279,0.5810000896453857,0.5980000495910645,0.6150000095367432,0.6310000419616699,0.6480000019073486,0.6649999618530273,0.6809999942779541]",space,0.657999992,500,0,8,0,8,0,1,7,
,,,,,,,,,,,,,,,,,,,,,,,,,,,,,,,,,,,,,,,,,,,,,,1,0,1,0,1,0,,,,,,,PilotWJ2,26,Male,2020-07-13_16h04.50.616,AvatarManual,3.2.2,Win32,60,,,,,,,,,,,,,,,,,,,,,,,,,,,,,,,,,,,,,,,,,,,,,"[16,16,16,16,16,16,16,16,16,16,16,16,16,16,16,16,16,16,16,16,16,16,16,16,16,16,16,16,16,16,16,16,16,16,16,16,16,16,16,16]","[-68,-68,-68,-68,-68,-68,-68,-68,-68,-68,-68,-68,-68,-68,-68,-68,-68,-68,-68,-68,-68,-68,-68,-68,-68,-68,-68,-68,-68,-68,-68,-68,-68,-68,-68,-68,-68,-68,-68,-68]","[0,0,0,0,0,0,0,0,0,0,0,0,0,0,0,0,0,0,0,0,0,0,0,0,0,0,0,0,0,0,0,0,0,0,0,0,0,0,0,0]","[0,0,0,0,0,0,0,0,0,0,0,0,0,0,0,0,0,0,0,0,0,0,0,0,0,0,0,0,0,0,0,0,0,0,0,0,0,0,0,0]","[0,0,0,0,0,0,0,0,0,0,0,0,0,0,0,0,0,0,0,0,0,0,0,0,0,0,0,0,0,0,0,0,0,0,0,0,0,0,0,0]","[0,0.021999835968017578,0.048999786376953125,0.06599998474121094,0.0820000171661377,0.0989999771118164,0.11500000953674316,0.13199996948242188,0.14899992942810059,0.16499996185302734,0.18199992179870605,0.19899988174438477,0.21499991416931152,0.23199987411499023,0.247999906539917,0.26599979400634766,0.2819998264312744,0.29799985885620117,0.3149998188018799,0.33099985122680664,0.3489999771118164,0.3639998435974121,0.3819999694824219,0.39800000190734863,0.41499996185302734,0.43199992179870605,0.44899988174438477,0.4649999141693115,0.4809999465942383,0.497999906539917,0.5149998664855957,0.5319998264312744,0.5479998588562012,0.5649998188018799,0.5820000171661377,0.5979998111724854,0.6150000095367432,0.6309998035430908,0.6480000019073486,0.6649999618530273]",space,0.638999939,400,0,8,0,8,0,1,7,
,,,,,,,,,,,,,,,,,,,,,,,,,,,,,,,,,,,,,,,,,,,,,,,,,,,,,,,,,,PilotWJ2,26,Male,2020-07-13_16h04.50.616,AvatarManual,3.2.2,Win32,60,,,,,,,,,,,,,,,,,,,,,,,,,,,,,,,,,,,,,,,,,,,,,,,,,,,,,,,,,,,,,102092
