Browser,true_x_res,true_y_res,x_adjustment,y_adjustment,Params_TravelTime,Params_yOffset,Params_Reach,Params_ScreenWidth,Params_ScreenHeight,Params_Hz,Params_HzScale,Params_conf_linewidth,params_consent,WelcomeEscape.keys,WelcomeEscape.rt,InstMouse.x,InstMouse.y,InstMouse.leftButton,InstMouse.midButton,InstMouse.rightButton,key_resp_2.keys,key_resp_2.rt,EndDemoExplantion.keys,EndDemoExplantion.rt,Demo_speedCond,Demo_delta,Demo_xposTarget,Demo_yposTarget,Demo_Delay,Demo_AvSpeed,Demo_Success,Demo_motion,Demo_Click,Demo_RTms,DemoMouse.x,DemoMouse.y,DemoMouse.leftButton,DemoMouse.midButton,DemoMouse.rightButton,DemoMouse.time,DemoMouse.clicked_name,Demo_finalX,Demo_finalY,DemoFeedBackMoveOn.keys,DemoFeedBackMoveOn.rt,BlockLoop.thisRepN,BlockLoop.thisTrialN,BlockLoop.thisN,BlockLoop.thisIndex,BlockLoop.ran,BlockLoop.order,DemoLoop.thisRepN,DemoLoop.thisTrialN,DemoLoop.thisN,DemoLoop.thisIndex,DemoLoop.ran,DemoLoop.order,participant,Age,Gender,date,expName,psychopyVersion,OS,frameRate,InstSkip.keys,InstSkip.rt,MoveOn.keys,MoveOn.rt,Decision_Delta,Decision_xposTarget,Decision_yposTarget,Decision_SpeedCond,Decision_AvSpeed,Decision_delay,Decision_targetSide,Decision_placement,Decision_initplace,AvatarMouse.x,AvatarMouse.y,AvatarMouse.leftButton,AvatarMouse.midButton,AvatarMouse.rightButton,AvatarMouse.time,PlacingKeyboard.keys,PlacingKeyboard.rt,Decision_Driving,Decision_Click,Decision_RTms,DrivingMouse.x,DrivingMouse.y,DrivingMouse.leftButton,DrivingMouse.midButton,DrivingMouse.rightButton,DrivingMouse.time,DrivingMouse.clicked_name,Decision_finalX,Decision_finalY,Decision_success,TrialMoveOn.keys,TrialMoveOn.rt,DecisionTrialLoop.thisRepN,DecisionTrialLoop.thisTrialN,DecisionTrialLoop.thisN,DecisionTrialLoop.thisIndex,DecisionTrialLoop.ran,DecisionTrialLoop.order,key_resp.keys,key_resp.rt,Conf_mouse.x,Conf_mouse.y,Conf_mouse.leftButton,Conf_mouse.midButton,Conf_mouse.rightButton,Conf_mouse.time,Conf_resp.keys,Conf_resp.rt,Confidence_Delta,Confidence_resp,ConfidenceLoop.thisRepN,ConfidenceLoop.thisTrialN,ConfidenceLoop.thisN,ConfidenceLoop.thisIndex,ConfidenceLoop.ran,ConfidenceLoop.order,exp_duration
Chrome,1880,980,1,1,120,100,45,1200,600,60,1,300,Agreed,space,1.697000265,21,-202,0,0,0,space,3.693000317,space,0.257000208,const,300,200,0,124,3.5,1,"[""stopped"",""stopped"",""stopped"",""stopped"",""stopped"",""stopped"",""stopped"",""stopped"",""stopped"",""stopped"",""stopped"",""stopped"",""stopped"",""stopped"",""stopped"",""stopped"",""down"",""down"",""down"",""down"",""down"",""down"",""down"",""down"",""down"",""down"",""down"",""down"",""down"",""down"",""down"",""down"",""down"",""down"",""down"",""down"",""down"",""down"",""down"",""down"",""down"",""down"",""right"",""right"",""right"",""right"",""right"",""right"",""right"",""right"",""right"",""right"",""right"",""right"",""right"",""right"",""right"",""right"",""right"",""right"",""right"",""right"",""right"",""right"",""right"",""right"",""right"",""right"",""right"",""right"",""right"",""right"",""right"",""right"",""right"",""right"",""right"",""right"",""right"",""right"",""right"",""right"",""right"",""right"",""right"",""right"",""right""]","[0,0,0,0,0,0,0,0,0,0,0,0,0,0,0,0,1,1,1,1,1,1,1,1,1,1,1,1,1,1,1,1,1,1,1,1,1,1,1,1,1,1,1,1,1,1,1,1,1,1,1,1,1,1,1,1,1,1,1,1,1,1,1,1,1,1,1,1,1,1,1,1,1,1,1,1,1,1,1,1,1,1,1,1,1,1,1]",266,[5],[-237],[1],[0],[0],[2.367000102996826],"[""DownClickDemo""]",0,100,space,0.269000053,1,0,1,0,1,0,8,0,8,0,1,7,PilotWJ3,26,Male,2020-07-13_16h14.17.354,AvatarManual,3.2.2,Win32,60,,,,,,,,,,,,,,,,,,,,,,,,,,,,,,,,,,,,,,,,,,,,,,,,,,,,,,,,,,,,,
,,,,,,,,,,,,,,,,,,,,,,,,,,400,300,0,112,3.5,1,"[""stopped"",""stopped"",""stopped"",""stopped"",""stopped"",""stopped"",""stopped"",""stopped"",""stopped"",""stopped"",""stopped"",""stopped"",""stopped"",""stopped"",""stopped"",""stopped"",""stopped"",""stopped"",""down"",""down"",""down"",""down"",""down"",""down"",""down"",""down"",""down"",""down"",""down"",""down"",""down"",""down"",""down"",""down"",""down"",""down"",""down"",""down"",""down"",""down"",""down"",""down"",""down"",""down"",""down"",""down"",""stopped"",""right"",""right"",""right"",""right"",""right"",""right"",""right"",""right"",""right"",""right"",""right"",""right"",""right"",""right"",""right"",""right"",""right"",""right"",""right"",""right"",""right"",""right"",""right"",""right"",""right"",""right"",""right"",""right"",""right"",""right"",""right"",""right"",""right"",""right"",""right"",""right"",""right"",""right"",""right"",""right"",""right"",""right"",""right"",""right"",""right"",""right"",""right"",""right"",""right"",""right"",""right"",""right"",""right"",""right"",""right"",""right"",""right"",""right"",""right"",""right"",""right"",""right"",""right"",""right"",""right"",""right"",""right"",""right"",""right"",""right"",""right"",""right"",""right""]","[0,0,0,0,0,0,0,0,0,0,0,0,0,0,0,0,0,0,1,1,1,1,1,1,1,1,1,1,1,1,1,1,1,1,1,1,1,1,1,1,1,1,1,1,1,1,0,1,1,1,1,1,1,1,1,1,1,1,1,1,1,1,1,1,1,1,1,1,1,1,1,1,1,1,1,1,1,1,1,1,1,1,1,1,1,1,1,1,1,1,1,1,1,1,1,1,1,1,1,1,1,1,1,1,1,1,1,1,1,1,1,1,1,1,1,1,1,1,1,1]",300,[-3],[-231],[1],[0],[0],[2.1489999294281006],"[""DownClickDemo""]",0,100,space,0.302000284,1,0,1,0,1,0,8,0,8,0,1,7,PilotWJ3,26,Male,2020-07-13_16h14.17.354,AvatarManual,3.2.2,Win32,60,,,,,,,,,,,,,,,,,,,,,,,,,,,,,,,,,,,,,,,,,,,,,,,,,,,,,,,,,,,,,
,,,,,,,,,,,,,,,,,,,,,,,,,,300,200,0,81,3.5,1,"[""stopped"",""stopped"",""stopped"",""stopped"",""stopped"",""stopped"",""stopped"",""stopped"",""stopped"",""stopped"",""stopped"",""stopped"",""stopped"",""stopped"",""stopped"",""stopped"",""stopped"",""stopped"",""stopped"",""stopped"",""stopped"",""down"",""down"",""down"",""down"",""down"",""down"",""down"",""down"",""down"",""down"",""down"",""down"",""down"",""down"",""down"",""down"",""down"",""down"",""down"",""down"",""down"",""down"",""down"",""down"",""down"",""down"",""down"",""stopped"",""stopped"",""right"",""right"",""right"",""right"",""right"",""right"",""right"",""right"",""right"",""right"",""right"",""right"",""right"",""right"",""right"",""right"",""right"",""right"",""right"",""right"",""right"",""right"",""right"",""right"",""right"",""right"",""right"",""right"",""right"",""right"",""right"",""right"",""right"",""right"",""right"",""right"",""right"",""right"",""right"",""right"",""right"",""right"",""right"",""right"",""right""]","[0,0,0,0,0,0,0,0,0,0,0,0,0,0,0,0,0,0,0,0,0,1,1,1,1,1,1,1,1,1,1,1,1,1,1,1,1,1,1,1,1,1,1,1,1,1,1,1,0,0,1,1,1,1,1,1,1,1,1,1,1,1,1,1,1,1,1,1,1,1,1,1,1,1,1,1,1,1,1,1,1,1,1,1,1,1,1,1,1,1,1,1,1,1,1]",349,[-2],[-227],[1],[0],[0],[1.683000087738037],"[""DownClickDemo""]",0,100,space,0.052999973,1,0,1,0,1,0,8,0,8,0,1,7,PilotWJ3,26,Male,2020-07-13_16h14.17.354,AvatarManual,3.2.2,Win32,60,,,,,,,,,,,,,,,,,,,,,,,,,,,,,,,,,,,,,,,,,,,,,,,,,,,,,,,,,,,,,
,,,,,,,,,,,,,,,,,,,,,,,,,,500,-400,0,95,3.5,0,"[""stopped"",""stopped"",""stopped"",""stopped"",""stopped"",""stopped"",""stopped"",""stopped"",""stopped"",""stopped"",""stopped"",""down"",""down"",""down"",""down"",""down"",""down"",""down"",""down"",""down"",""down"",""down"",""down"",""down"",""down"",""down"",""down"",""down"",""down"",""down"",""down"",""down"",""down"",""down"",""down"",""down"",""stopped"",""left"",""left"",""left"",""left"",""left"",""left"",""left"",""left"",""left"",""left"",""left"",""left"",""left"",""left"",""left"",""left"",""left"",""left"",""left"",""left"",""left"",""left"",""left"",""left"",""left"",""left"",""left"",""left"",""left"",""left"",""left"",""left"",""left"",""left"",""left"",""left"",""left"",""left"",""left"",""left"",""left"",""left"",""left"",""left"",""left"",""left"",""left"",""left"",""left"",""left"",""left"",""left"",""left"",""left"",""left"",""left"",""left"",""left"",""left"",""left"",""left"",""left"",""left"",""left"",""left"",""left"",""left"",""left"",""left"",""left"",""left"",""left"",""left"",""left"",""left"",""left"",""left"",""left"",""left"",""left"",""left"",""left"",""left"",""left""]","[0,0,0,0,0,0,0,0,0,0,0,1,1,1,1,1,1,1,1,1,1,1,1,1,1,1,1,1,1,1,1,1,1,1,1,1,0,1,1,1,1,1,1,1,1,1,1,1,1,1,1,1,1,1,1,1,1,1,1,1,1,1,1,1,1,1,1,1,1,1,1,1,1,1,1,1,1,1,1,1,1,1,1,1,1,1,1,1,1,1,1,1,1,1,1,1,1,1,1,1,1,1,1,1,1,1,1,1,1,1,1,1,1,1,1,1,1,1,1,1,1]",182,[-5],[-230],[1],[0],[0],[1.751000165939331],"[""DownClickDemo""]",0,100,space,0.361000299,1,0,1,0,1,0,8,0,8,0,1,7,PilotWJ3,26,Male,2020-07-13_16h14.17.354,AvatarManual,3.2.2,Win32,60,,,,,,,,,,,,,,,,,,,,,,,,,,,,,,,,,,,,,,,,,,,,,,,,,,,,,,,,,,,,,
,,,,,,,,,,,,,,,,,,,,,,,,,,400,300,0,73,3.5,1,"[""stopped"",""stopped"",""stopped"",""stopped"",""stopped"",""stopped"",""stopped"",""stopped"",""stopped"",""stopped"",""stopped"",""stopped"",""stopped"",""stopped"",""stopped"",""stopped"",""stopped"",""stopped"",""stopped"",""down"",""down"",""down"",""down"",""down"",""down"",""down"",""down"",""down"",""down"",""down"",""down"",""down"",""down"",""down"",""down"",""down"",""down"",""down"",""down"",""down"",""down"",""down"",""down"",""down"",""down"",""down"",""stopped"",""right"",""right"",""right"",""right"",""right"",""right"",""right"",""right"",""right"",""right"",""right"",""right"",""right"",""right"",""right"",""right"",""right"",""right"",""right"",""right"",""right"",""right"",""right"",""right"",""right"",""right"",""right"",""right"",""right"",""right"",""right"",""right"",""right"",""right"",""right"",""right"",""right"",""right"",""right"",""right"",""right"",""right"",""right"",""right"",""right"",""right"",""right"",""right"",""right"",""right"",""right"",""right"",""right"",""right"",""right"",""right"",""right"",""right"",""right"",""right"",""right"",""right"",""right"",""right"",""right"",""right"",""right"",""right"",""right"",""right"",""right"",""right"",""right""]","[0,0,0,0,0,0,0,0,0,0,0,0,0,0,0,0,0,0,0,1,1,1,1,1,1,1,1,1,1,1,1,1,1,1,1,1,1,1,1,1,1,1,1,1,1,1,0,1,1,1,1,1,1,1,1,1,1,1,1,1,1,1,1,1,1,1,1,1,1,1,1,1,1,1,1,1,1,1,1,1,1,1,1,1,1,1,1,1,1,1,1,1,1,1,1,1,1,1,1,1,1,1,1,1,1,1,1,1,1,1,1,1,1,1,1,1,1,1,1,1]",316,[7],[-235],[1],[0],[0],[1.5829999446868896],"[""DownClickDemo""]",0,100,space,0.252000093,1,0,1,0,1,0,8,0,8,0,1,7,PilotWJ3,26,Male,2020-07-13_16h14.17.354,AvatarManual,3.2.2,Win32,60,,,,,,,,,,,,,,,,,,,,,,,,,,,,,,,,,,,,,,,,,,,,,,,,,,,,,,,,,,,,,
,,,,,,,,,,,,,,,,,,,,,,,,,,200,-100,0,96,3.5,1,"[""stopped"",""stopped"",""stopped"",""stopped"",""stopped"",""stopped"",""stopped"",""stopped"",""stopped"",""stopped"",""stopped"",""stopped"",""stopped"",""stopped"",""stopped"",""stopped"",""stopped"",""stopped"",""down"",""down"",""down"",""down"",""down"",""down"",""down"",""down"",""down"",""down"",""down"",""down"",""left"",""left"",""left"",""left"",""left"",""left"",""left"",""left"",""left"",""left"",""left"",""left"",""left"",""left"",""left"",""left"",""left"",""left"",""left"",""left"",""left"",""left"",""left"",""left"",""left"",""left"",""stopped"",""stopped"",""stopped"",""stopped"",""down"",""down"",""down"",""down""]","[0,0,0,0,0,0,0,0,0,0,0,0,0,0,0,0,0,0,1,1,1,1,1,1,1,1,1,1,1,1,1,1,1,1,1,1,1,1,1,1,1,1,1,1,1,1,1,1,1,1,1,1,1,1,1,1,0,0,0,0,1,1,1,1]",299,"[-2,-8]","[-231,-239]","[1,1]","[0,0]","[0,0]","[1.8980000019073486,3.115000009536743]","[""DownClickDemo"",""DownClickDemo""]",0,100,space,0.086000204,1,0,1,0,1,0,8,0,8,0,1,7,PilotWJ3,26,Male,2020-07-13_16h14.17.354,AvatarManual,3.2.2,Win32,60,,,,,,,,,,,,,,,,,,,,,,,,,,,,,,,,,,,,,,,,,,,,,,,,,,,,,,,,,,,,,
,,,,,,,,,,,,,,,,,,,,,,,,,,200,-100,0,131,3.5,1,"[""stopped"",""stopped"",""stopped"",""stopped"",""stopped"",""stopped"",""stopped"",""stopped"",""stopped"",""stopped"",""stopped"",""stopped"",""stopped"",""stopped"",""stopped"",""stopped"",""stopped"",""stopped"",""down"",""down"",""down"",""down"",""down"",""down"",""down"",""down"",""down"",""down"",""down"",""down"",""down"",""down"",""down"",""down"",""down"",""down"",""down"",""down"",""down"",""down"",""down"",""down"",""down"",""stopped"",""left"",""left"",""left"",""left"",""left"",""left"",""left"",""left"",""left"",""left"",""left"",""left"",""left"",""left"",""left"",""left"",""left""]","[0,0,0,0,0,0,0,0,0,0,0,0,0,0,0,0,0,0,1,1,1,1,1,1,1,1,1,1,1,1,1,1,1,1,1,1,1,1,1,1,1,1,1,0,1,1,1,1,1,1,1,1,1,1,1,1,1,1,1,1,1]",316,"[0,-1]","[-233,-232]","[1,1]","[0,0]","[0,0]","[2.236999988555908,5.75]","[""DownClickDemo"",""DownClickDemo""]",0,100,space,0.319000244,1,0,1,0,1,0,8,0,8,0,1,7,PilotWJ3,26,Male,2020-07-13_16h14.17.354,AvatarManual,3.2.2,Win32,60,,,,,,,,,,,,,,,,,,,,,,,,,,,,,,,,,,,,,,,,,,,,,,,,,,,,,,,,,,,,,
,,,,,,,,,,,,,,,,,,,,,,,,,,500,400,0,146,3.5,0,"[""stopped"",""stopped"",""stopped"",""stopped"",""stopped"",""stopped"",""stopped"",""stopped"",""stopped"",""stopped"",""stopped"",""stopped"",""stopped"",""stopped"",""stopped"",""stopped"",""stopped"",""stopped"",""stopped"",""stopped"",""down"",""down"",""down"",""down"",""down"",""down"",""down"",""down"",""down"",""down"",""down"",""down"",""down"",""down"",""down"",""down"",""down"",""down"",""down"",""down"",""down"",""down"",""down"",""down"",""down"",""stopped"",""stopped"",""right"",""right"",""right"",""right"",""right"",""right"",""right"",""right"",""right"",""right"",""right"",""right"",""right"",""right"",""right"",""right"",""right"",""right"",""right"",""right"",""right"",""right"",""right"",""right"",""right"",""right"",""right"",""right"",""right"",""right"",""right"",""right"",""right"",""right"",""right"",""right"",""right"",""right"",""right"",""right"",""right"",""right"",""right"",""right"",""right"",""right"",""right"",""right"",""right"",""right"",""right"",""right"",""right"",""right"",""right"",""right"",""right"",""right"",""right"",""right"",""right"",""right"",""right"",""right"",""right"",""right"",""right"",""right"",""right"",""right"",""right"",""right"",""right"",""right""]","[0,0,0,0,0,0,0,0,0,0,0,0,0,0,0,0,0,0,0,0,1,1,1,1,1,1,1,1,1,1,1,1,1,1,1,1,1,1,1,1,1,1,1,1,1,0,0,1,1,1,1,1,1,1,1,1,1,1,1,1,1,1,1,1,1,1,1,1,1,1,1,1,1,1,1,1,1,1,1,1,1,1,1,1,1,1,1,1,1,1,1,1,1,1,1,1,1,1,1,1,1,1,1,1,1,1,1,1,1,1,1,1,1,1,1,1,1,1,1,1,1]",333,[-3],[-231],[1],[0],[0],[2.7669999599456787],"[""DownClickDemo""]",0,100,space,0.086000204,1,0,1,0,1,0,8,0,8,0,1,7,PilotWJ3,26,Male,2020-07-13_16h14.17.354,AvatarManual,3.2.2,Win32,60,,,,,,,,,,,,,,,,,,,,,,,,,,,,,,,,,,,,,,,,,,,,,,,,,,,,,,,,,,,,,
,,,,,,,,,,,,,,,,,,,,,,,,,,,,,,,,,,,,,,,,,,,,,,1,0,1,0,1,0,,,,,,,PilotWJ3,26,Male,2020-07-13_16h14.17.354,AvatarManual,3.2.2,Win32,60,space,0.002000332,space,0.486000061,500,400,0,const,3.5,111,right,-10,189,"[14,14,14,14,14,14,14,14,14,14,14,14,14,14,14,14,14,14,14,14,14,15,15,15,14,14,14,14,13,13,12,11,11,10,7,4,2,-1,-5,-7,-9,-10,-10,-10,-10,-10,-10,-10,-10,-10,-10,-10,-11,-12,-14,-16,-18,-19,-20,-21,-22,-22,-23,-23,-23,-23,-22,-16,-11,-3,0,1,2,2,4,4,4,4,4,4,4,4,4,4,4,4,3,3,2,2,2,2,1,1,1,1,1,1]","[-19,-19,-19,-19,-19,-19,-19,-19,-19,-19,-19,-19,-19,-19,-19,-19,-19,-19,-18,-16,-6,7,54,63,69,72,73,75,75,77,78,78,79,79,80,81,82,83,84,85,86,87,87,87,87,87,87,87,87,87,87,87,85,81,75,69,64,59,53,47,39,33,30,28,24,17,-2,-40,-86,-132,-167,-185,-196,-204,-210,-213,-213,-213,-213,-213,-213,-213,-213,-213,-213,-211,-208,-206,-204,-203,-202,-199,-198,-198,-198,-198,-198,-198]","[0,0,0,0,0,0,0,0,0,0,0,0,0,0,0,0,0,0,0,0,0,0,0,0,0,0,0,0,0,0,0,0,0,0,0,0,0,0,0,0,0,0,0,1,1,1,1,1,0,0,0,0,0,0,0,0,0,0,0,0,0,0,0,0,0,0,0,0,0,0,0,0,0,0,0,0,0,0,0,0,0,0,0,0,0,0,0,0,0,0,0,0,0,0,0,0,0,1]","[0,0,0,0,0,0,0,0,0,0,0,0,0,0,0,0,0,0,0,0,0,0,0,0,0,0,0,0,0,0,0,0,0,0,0,0,0,0,0,0,0,0,0,0,0,0,0,0,0,0,0,0,0,0,0,0,0,0,0,0,0,0,0,0,0,0,0,0,0,0,0,0,0,0,0,0,0,0,0,0,0,0,0,0,0,0,0,0,0,0,0,0,0,0,0,0,0,0]","[0,0,0,0,0,0,0,0,0,0,0,0,0,0,0,0,0,0,0,0,0,0,0,0,0,0,0,0,0,0,0,0,0,0,0,0,0,0,0,0,0,0,0,0,0,0,0,0,0,0,0,0,0,0,0,0,0,0,0,0,0,0,0,0,0,0,0,0,0,0,0,0,0,0,0,0,0,0,0,0,0,0,0,0,0,0,0,0,0,0,0,0,0,0,0,0,0,0]","[0.0019998550415039062,0.03699994087219238,0.053999900817871094,0.06999993324279785,0.08699989318847656,0.10299992561340332,0.11999988555908203,0.13699984550476074,0.1529998779296875,0.1699998378753662,0.18700003623962402,0.20299983024597168,0.2200000286102295,0.2369999885559082,0.2539999485015869,0.26999998092651367,0.2869999408721924,0.30299997329711914,0.3209998607635498,0.3379998207092285,0.3559999465942383,0.370999813079834,0.42100000381469727,0.437000036239624,0.45399999618530273,0.4700000286102295,0.4869999885559082,0.5039999485015869,0.5209999084472656,0.5369999408721924,0.5539999008178711,0.5709998607635498,0.5869998931884766,0.6039998531341553,0.619999885559082,0.6369998455047607,0.6540000438690186,0.6699998378753662,0.687000036239624,0.7039999961853027,0.7200000286102295,0.7369999885559082,0.753000020980835,0.7709999084472656,0.7869999408721924,0.8039999008178711,0.8209998607635498,0.8369998931884766,0.8539998531341553,0.870999813079834,0.8869998455047607,0.9040000438690186,0.9219999313354492,0.937999963760376,0.9539999961853027,0.9709999561309814,0.9879999160766602,1.003999948501587,1.0209999084472656,1.0379998683929443,1.053999900817871,1.0709998607635498,1.0879998207092285,1.1039998531341553,1.120999813079834,1.1380000114440918,1.1540000438690186,1.1719999313354492,1.187999963760376,1.2039999961853027,1.2209999561309814,1.2379999160766602,1.2549998760223389,1.2709999084472656,1.2879998683929443,1.303999900817871,1.3209998607635498,1.3369998931884766,1.3539998531341553,1.370999813079834,1.3869998455047607,1.4040000438690186,1.4210000038146973,1.437000036239624,1.4539999961853027,1.4709999561309814,1.4879999160766602,1.503999948501587,1.5209999084472656,1.5369999408721924,1.553999900817871,1.5709998607635498,1.5869998931884766,1.6039998531341553,1.619999885559082,1.6369998455047607,1.6540000438690186,1.6710000038146973]",,,"[""stopped"",""stopped"",""stopped"",""stopped"",""stopped"",""stopped"",""stopped"",""stopped"",""stopped"",""stopped"",""stopped"",""stopped"",""stopped"",""stopped"",""stopped"",""stopped"",""stopped"",""stopped"",""stopped"",""stopped"",""stopped"",""stopped"",""stopped"",""stopped"",""stopped"",""stopped"",""stopped"",""stopped"",""stopped"",""stopped"",""stopped"",""stopped"",""stopped"",""stopped"",""stopped"",""stopped"",""stopped"",""stopped"",""stopped"",""stopped"",""stopped"",""stopped"",""stopped"",""stopped"",""stopped"",""stopped"",""stopped"",""stopped"",""stopped"",""stopped"",""stopped"",""stopped"",""stopped"",""stopped"",""stopped"",""stopped"",""stopped"",""stopped"",""stopped"",""stopped"",""stopped"",""stopped"",""stopped"",""stopped"",""stopped"",""stopped"",""stopped"",""stopped"",""stopped"",""stopped"",""stopped"",""stopped"",""stopped"",""stopped"",""stopped"",""stopped"",""stopped"",""stopped"",""stopped"",""stopped"",""stopped"",""stopped"",""stopped"",""stopped"",""stopped"",""stopped"",""stopped"",""stopped"",""stopped"",""stopped"",""stopped"",""stopped"",""stopped"",""stopped"",""stopped"",""stopped"",""stopped"",""stopped"",""stopped"",""stopped"",""stopped"",""stopped"",""stopped"",""stopped"",""stopped"",""stopped"",""stopped"",""stopped"",""stopped"",""stopped"",""stopped"",""stopped"",""stopped"",""stopped"",""stopped"",""stopped"",""stopped"",""stopped"",""stopped"",""stopped"",""stopped""]","[0,0,0,0,0,0,0,0,0,0,0,0,0,0,0,0,0,0,0,0,0,0,0,0,0,0,0,0,0,0,0,0,0,0,0,0,0,0,0,0,0,0,0,0,0,0,0,0,0,0,0,0,0,0,0,0,0,0,0,0,0,0,0,0,0,0,0,0,0,0,0,0,0,0,0,0,0,0,0,0,0,0,0,0,0,0,0,0,0,0,0,0,0,0,0,0,0,0,0,0,0,0,0,0,0,0,0,0,0,0,0,0,0,0,0,0,0,0,0,0,0]",NaN,"[-4,-4,-4,-4,-4,-4,-4,-4,-4,-4,-4,-4,-4,-4,-4,-4,-4,-4,-4,-4,-4,-4,-4,-4,-4,-4,-4,-4,-4,-4,-4,-4,-4,-4,-4,-4,-4,-4,-4,-4,-4,-4,-4,-4,-4,-4,-4,-4,-4,-4,-4,-4,-4,-4,-4,-4,-4,-4,-4,-4,-4,-4,-4,-4,-4,-4,-4,-4,-4,-4,-4,-4,-4,-4,-4,-4,-4,-4,-4,-4,-4,-4,-4,-4,-4,-4,-4,-4,-4,-4,-4,-4,-4,-4,-4,-4,-4,-4,-4,-4,-4,-4,-4,-4,-4,-4,-4,-4,-4,-4,-4,-4,-4,-4,-4,-4,-4,-4,-4,-4]","[-91,-91,-91,-91,-91,-91,-91,-91,-91,-91,-91,-91,-91,-91,-91,-91,-91,-91,-91,-91,-91,-91,-91,-91,-91,-91,-91,-91,-91,-91,-91,-91,-91,-91,-91,-91,-91,-91,-91,-91,-91,-91,-91,-91,-91,-91,-91,-91,-91,-91,-91,-91,-91,-91,-91,-91,-91,-91,-91,-91,-91,-91,-91,-91,-91,-91,-91,-91,-91,-91,-91,-91,-91,-91,-91,-91,-91,-91,-91,-91,-91,-91,-91,-91,-91,-91,-91,-91,-91,-91,-91,-91,-91,-91,-91,-91,-91,-91,-91,-91,-91,-91,-91,-91,-91,-91,-91,-91,-91,-91,-91,-91,-91,-91,-91,-91,-91,-91,-91,-91]","[0,0,0,0,0,0,0,0,0,0,0,0,0,0,0,0,0,0,0,0,0,0,0,0,0,0,0,0,0,0,0,0,0,0,0,0,0,0,0,0,0,0,0,0,0,0,0,0,0,0,0,0,0,0,0,0,0,0,0,0,0,0,0,0,0,0,0,0,0,0,0,0,0,0,0,0,0,0,0,0,0,0,0,0,0,0,0,0,0,0,0,0,0,0,0,0,0,0,0,0,0,0,0,0,0,0,0,0,0,0,0,0,0,0,0,0,0,0,0,0]","[0,0,0,0,0,0,0,0,0,0,0,0,0,0,0,0,0,0,0,0,0,0,0,0,0,0,0,0,0,0,0,0,0,0,0,0,0,0,0,0,0,0,0,0,0,0,0,0,0,0,0,0,0,0,0,0,0,0,0,0,0,0,0,0,0,0,0,0,0,0,0,0,0,0,0,0,0,0,0,0,0,0,0,0,0,0,0,0,0,0,0,0,0,0,0,0,0,0,0,0,0,0,0,0,0,0,0,0,0,0,0,0,0,0,0,0,0,0,0,0]","[0,0,0,0,0,0,0,0,0,0,0,0,0,0,0,0,0,0,0,0,0,0,0,0,0,0,0,0,0,0,0,0,0,0,0,0,0,0,0,0,0,0,0,0,0,0,0,0,0,0,0,0,0,0,0,0,0,0,0,0,0,0,0,0,0,0,0,0,0,0,0,0,0,0,0,0,0,0,0,0,0,0,0,0,0,0,0,0,0,0,0,0,0,0,0,0,0,0,0,0,0,0,0,0,0,0,0,0,0,0,0,0,0,0,0,0,0,0,0,0]","[0,0.01699995994567871,0.03399991989135742,0.04999995231628418,0.06699991226196289,0.08299994468688965,0.09999990463256836,0.11700010299682617,0.13300013542175293,0.15000009536743164,0.16700005531311035,0.18400001525878906,0.20000004768371582,0.21700000762939453,0.2330000400543213,0.25,0.2669999599456787,0.2839999198913574,0.30100011825561523,0.3169999122619629,0.3340001106262207,0.34999990463256836,0.36700010299682617,0.38300013542175293,0.40000009536743164,0.41700005531311035,0.43400001525878906,0.4500000476837158,0.46700000762939453,0.48399996757507324,0.5,0.5169999599456787,0.5339999198913574,0.5510001182556152,0.5669999122619629,0.5840001106262207,0.5999999046325684,0.6170001029968262,0.6340000629425049,0.6510000228881836,0.6670000553131104,0.6840000152587891,0.7000000476837158,0.7170000076293945,0.7339999675750732,0.75,0.7669999599456787,0.7839999198913574,0.7999999523162842,0.8169999122619629,0.8340001106262207,0.8499999046325684,0.8680000305175781,0.8840000629425049,0.9010000228881836,0.9179999828338623,0.9340000152587891,0.9500000476837158,0.9670000076293945,0.9839999675750732,1.000999927520752,1.0169999599456787,1.0339999198913574,1.0499999523162842,1.066999912261963,1.0840001106262207,1.0999999046325684,1.1170001029968262,1.133000135421753,1.1500000953674316,1.1670000553131104,1.183000087738037,1.2000000476837158,1.2170000076293945,1.2339999675750732,1.25,1.2669999599456787,1.2839999198913574,1.2999999523162842,1.316999912261963,1.3329999446868896,1.3499999046325684,1.3670001029968262,1.383000135421753,1.4000000953674316,1.4170000553131104,1.434000015258789,1.4500000476837158,1.4670000076293945,1.4839999675750732,1.5,1.5169999599456787,1.5339999198913574,1.5499999523162842,1.566999912261963,1.5829999446868896,1.5999999046325684,1.6170001029968262,1.6340000629425049,1.6500000953674316,1.6670000553131104,1.684000015258789,1.7009999752044678,1.7170000076293945,1.7330000400543213,1.75,1.7669999599456787,1.7839999198913574,1.7999999523162842,1.816999912261963,1.8340001106262207,1.8499999046325684,1.86899995803833,1.8840000629425049,1.9010000228881836,1.9170000553131104,1.934000015258789,1.9500000476837158,1.9670000076293945,1.9830000400543213]",[],-10,100,0,space,0.642000198,4,0,4,0,1,3,,,,,,,,,,,,,,,,,,,
,,,,,,,,,,,,,,,,,,,,,,,,,,,,,,,,,,,,,,,,,,,,,,1,0,1,0,1,0,,,,,,,PilotWJ3,26,Male,2020-07-13_16h14.17.354,AvatarManual,3.2.2,Win32,60,,,,,200,100,0,const,3.5,94,right,-4,-35,"[13,13,13,13,13,13,13,13,13,13,13,13,13,13,13,13,12,12,10,8,5,3,1,-1,-1,-2,-3,-3,-4,-4,-4,-4,-4,-4,-4,-4,-4,-4,-4,-4,-4,-4,-4,-3,-2,0,0,2,2,2,4,4,4,5,6,6,7,7,7,7,8,8,9,10,10,10,10,9,8,8,8,8,8,8]","[28,28,28,28,28,28,28,28,28,28,28,28,28,28,31,36,42,54,63,73,80,87,92,98,102,107,110,112,112,112,112,112,112,112,112,112,112,112,112,109,104,94,78,52,21,-9,-40,-68,-90,-105,-117,-125,-133,-145,-154,-157,-159,-161,-161,-162,-163,-165,-167,-170,-172,-179,-186,-195,-203,-206,-208,-208,-208,-208]","[0,0,0,0,0,0,0,0,0,0,0,0,0,0,0,0,0,0,0,0,0,0,0,0,0,0,0,0,0,0,0,0,0,0,1,1,1,0,0,0,0,0,0,0,0,0,0,0,0,0,0,0,0,0,0,0,0,0,0,0,0,0,0,0,0,0,0,0,0,0,0,0,0,1]","[0,0,0,0,0,0,0,0,0,0,0,0,0,0,0,0,0,0,0,0,0,0,0,0,0,0,0,0,0,0,0,0,0,0,0,0,0,0,0,0,0,0,0,0,0,0,0,0,0,0,0,0,0,0,0,0,0,0,0,0,0,0,0,0,0,0,0,0,0,0,0,0,0,0]","[0,0,0,0,0,0,0,0,0,0,0,0,0,0,0,0,0,0,0,0,0,0,0,0,0,0,0,0,0,0,0,0,0,0,0,0,0,0,0,0,0,0,0,0,0,0,0,0,0,0,0,0,0,0,0,0,0,0,0,0,0,0,0,0,0,0,0,0,0,0,0,0,0,0]","[0.0009999275207519531,0.016000032424926758,0.031999826431274414,0.04900002479553223,0.06599998474121094,0.0820000171661377,0.0989999771118164,0.11599993705749512,0.13299989700317383,0.14899992942810059,0.1659998893737793,0.18199992179870605,0.19899988174438477,0.21700000762939453,0.23399996757507324,0.2519998550415039,0.2669999599456787,0.2839999198913574,0.2999999523162842,0.3169999122619629,0.33299994468688965,0.34999990463256836,0.3659999370574951,0.38299989700317383,0.3989999294281006,0.4159998893737793,0.432999849319458,0.4499998092651367,0.4659998416900635,0.48199987411499023,0.49899983406066895,0.5160000324249268,0.5319998264312744,0.5490000247955322,0.5659999847412109,0.5829999446868896,0.5999999046325684,0.6159999370574951,0.6329998970031738,0.6499998569488525,0.6689999103546143,0.6840000152587891,0.6999998092651367,0.7170000076293945,0.7330000400543213,0.75,0.7669999599456787,0.7829999923706055,0.7999999523162842,0.8159999847412109,0.8329999446868896,0.8499999046325684,0.8669998645782471,0.8829998970031738,0.8999998569488525,0.9159998893737793,0.934999942779541,0.9499998092651367,0.9659998416900635,0.9839999675750732,1.000999927520752,1.0169999599456787,1.0339999198913574,1.0499999523162842,1.066999912261963,1.0839998722076416,1.1009998321533203,1.116999864578247,1.1329998970031738,1.1499998569488525,1.1669998168945312,1.182999849319458,1.1989998817443848,1.2159998416900635]",,,"[""stopped"",""stopped"",""stopped"",""stopped"",""stopped"",""stopped"",""stopped"",""stopped"",""stopped"",""stopped"",""stopped"",""stopped"",""stopped"",""stopped"",""stopped"",""stopped"",""stopped"",""stopped"",""stopped"",""stopped"",""stopped"",""stopped"",""stopped"",""stopped"",""stopped"",""stopped"",""stopped"",""stopped"",""stopped"",""stopped"",""stopped"",""stopped"",""stopped"",""stopped"",""stopped"",""stopped"",""stopped"",""stopped"",""stopped"",""stopped"",""stopped"",""stopped"",""stopped"",""stopped"",""stopped"",""stopped"",""stopped"",""stopped"",""stopped"",""stopped"",""stopped"",""stopped"",""stopped"",""stopped"",""stopped"",""stopped"",""stopped"",""stopped"",""stopped"",""stopped"",""stopped"",""stopped"",""stopped"",""stopped"",""stopped"",""stopped"",""stopped"",""stopped"",""stopped"",""stopped"",""stopped"",""stopped"",""stopped"",""stopped"",""stopped"",""stopped"",""stopped"",""stopped"",""stopped"",""stopped"",""stopped"",""stopped"",""stopped"",""stopped"",""stopped"",""stopped"",""stopped"",""stopped"",""stopped"",""stopped"",""stopped"",""stopped"",""stopped"",""stopped"",""stopped"",""stopped"",""stopped"",""stopped"",""stopped"",""stopped"",""stopped"",""stopped"",""stopped"",""stopped"",""stopped"",""stopped"",""stopped"",""stopped"",""stopped"",""stopped"",""stopped"",""stopped"",""stopped"",""stopped"",""stopped"",""stopped"",""stopped"",""stopped"",""stopped"",""stopped"",""stopped""]","[0,0,0,0,0,0,0,0,0,0,0,0,0,0,0,0,0,0,0,0,0,0,0,0,0,0,0,0,0,0,0,0,0,0,0,0,0,0,0,0,0,0,0,0,0,0,0,0,0,0,0,0,0,0,0,0,0,0,0,0,0,0,0,0,0,0,0,0,0,0,0,0,0,0,0,0,0,0,0,0,0,0,0,0,0,0,0,0,0,0,0,0,0,0,0,0,0,0,0,0,0,0,0,0,0,0,0,0,0,0,0,0,0,0,0,0,0,0,0,0,0]",NaN,"[7,7,7,7,7,7,7,7,7,7,7,7,7,7,7,7,7,7,7,7,7,7,7,7,7,7,7,7,7,7,7,7,7,7,7,7,7,7,7,7,7,7,7,7,7,7,7,7,7,7,7,7,7,7,7,7,7,7,7,7,7,7,7,7,7,7,7,7,7,7,7,7,7,7,7,7,7,7,7,7,7,7,7,7,7,7,7,7,7,7,7,7,7,7,7,7,7,7,7,7,7,7,7,7,7,7,7,7,7,7,7,7,7,7,7,7,7,7,7,7]","[-166,-166,-166,-166,-166,-166,-166,-166,-166,-166,-166,-166,-166,-166,-166,-166,-166,-166,-166,-166,-166,-166,-166,-166,-166,-166,-166,-166,-166,-166,-166,-166,-166,-166,-166,-166,-166,-166,-166,-166,-166,-166,-166,-166,-166,-166,-166,-166,-166,-166,-166,-166,-166,-166,-166,-166,-166,-166,-166,-166,-166,-166,-166,-166,-166,-166,-166,-166,-166,-166,-166,-166,-166,-166,-166,-166,-166,-166,-166,-166,-166,-166,-166,-166,-166,-166,-166,-166,-166,-166,-166,-166,-166,-166,-166,-166,-166,-166,-166,-166,-166,-166,-166,-166,-166,-166,-166,-166,-166,-166,-166,-166,-166,-166,-166,-166,-166,-166,-166,-166]","[0,0,0,0,0,0,0,0,0,0,0,0,0,0,0,0,0,0,0,0,0,0,0,0,0,0,0,0,0,0,0,0,0,0,0,0,0,0,0,0,0,0,0,0,0,0,0,0,0,0,0,0,0,0,0,0,0,0,0,0,0,0,0,0,0,0,0,0,0,0,0,0,0,0,0,0,0,0,0,0,0,0,0,0,0,0,0,0,0,0,0,0,0,0,0,0,0,0,0,0,0,0,0,0,0,0,0,0,0,0,0,0,0,0,0,0,0,0,0,0]","[0,0,0,0,0,0,0,0,0,0,0,0,0,0,0,0,0,0,0,0,0,0,0,0,0,0,0,0,0,0,0,0,0,0,0,0,0,0,0,0,0,0,0,0,0,0,0,0,0,0,0,0,0,0,0,0,0,0,0,0,0,0,0,0,0,0,0,0,0,0,0,0,0,0,0,0,0,0,0,0,0,0,0,0,0,0,0,0,0,0,0,0,0,0,0,0,0,0,0,0,0,0,0,0,0,0,0,0,0,0,0,0,0,0,0,0,0,0,0,0]","[0,0,0,0,0,0,0,0,0,0,0,0,0,0,0,0,0,0,0,0,0,0,0,0,0,0,0,0,0,0,0,0,0,0,0,0,0,0,0,0,0,0,0,0,0,0,0,0,0,0,0,0,0,0,0,0,0,0,0,0,0,0,0,0,0,0,0,0,0,0,0,0,0,0,0,0,0,0,0,0,0,0,0,0,0,0,0,0,0,0,0,0,0,0,0,0,0,0,0,0,0,0,0,0,0,0,0,0,0,0,0,0,0,0,0,0,0,0,0,0]","[0,0.01699995994567871,0.03399991989135742,0.04999995231628418,0.06699991226196289,0.0839998722076416,0.09999990463256836,0.11699986457824707,0.13399982452392578,0.14999985694885254,0.16699981689453125,0.18400001525878906,0.20000004768371582,0.21700000762939453,0.23399996757507324,0.25099992752075195,0.2669999599456787,0.2839999198913574,0.30099987983703613,0.3169999122619629,0.3339998722076416,0.34999990463256836,0.36699986457824707,0.3839998245239258,0.39999985694885254,0.41699981689453125,0.434999942779541,0.4519999027252197,0.47099995613098145,0.48599982261657715,0.5139999389648438,0.5499999523162842,0.5669999122619629,0.5839998722076416,0.5999999046325684,0.6169998645782471,0.6339998245239258,0.6499998569488525,0.6669998168945312,0.6840000152587891,0.7009999752044678,0.7170000076293945,0.7339999675750732,0.750999927520752,0.7669999599456787,0.7839999198913574,0.7999999523162842,0.8179998397827148,0.8339998722076416,0.8509998321533203,0.8669998645782471,0.8839998245239258,0.8999998569488525,0.9169998168945312,0.9340000152587891,0.9509999752044678,0.9670000076293945,0.9839999675750732,1.000999927520752,1.0179998874664307,1.0339999198913574,1.0509998798370361,1.066999912261963,1.0839998722076416,1.0999999046325684,1.116999864578247,1.1339998245239258,1.1510000228881836,1.1669998168945312,1.184000015258789,1.2009999752044678,1.2179999351501465,1.2339999675750732,1.250999927520752,1.2679998874664307,1.2849998474121094,1.3009998798370361,1.3179998397827148,1.3339998722076416,1.3519999980926514,1.3680000305175781,1.3839998245239258,1.4010000228881836,1.4169998168945312,1.435999870300293,1.4509999752044678,1.4679999351501465,1.4839999675750732,1.5,1.5339999198913574,1.5499999523162842,1.566999912261963,1.5839998722076416,1.6009998321533203,1.616999864578247,1.6339998245239258,1.6510000228881836,1.6669998168945312,1.684000015258789,1.7009999752044678,1.7170000076293945,1.7339999675750732,1.75,1.7669999599456787,1.7839999198913574,1.8009998798370361,1.816999912261963,1.8339998722076416,1.8509998321533203,1.866999864578247,1.8839998245239258,1.9010000228881836,1.9169998168945312,1.934000015258789,1.9509999752044678,1.9670000076293945,1.9839999675750732,2,2.0169999599456787,2.0339999198913574]","[""upClick"",""upClick"",""upClick"",""upClick"",""upClick"",""upClick"",""upClick"",""upClick"",""upClick"",""upClick"",""upClick"",""upClick"",""upClick"",""upClick"",""upClick"",""upClick"",""upClick"",""upClick"",""upClick"",""upClick"",""upClick"",""upClick"",""upClick"",""upClick"",""upClick"",""upClick"",""upClick"",""upClick"",""upClick"",""upClick"",""upClick"",""upClick"",""upClick"",""upClick"",""upClick"",""upClick"",""upClick"",""upClick"",""upClick"",""upClick"",""upClick"",""upClick"",""upClick"",""upClick"",""upClick"",""upClick"",""upClick"",""upClick"",""upClick"",""upClick"",""upClick"",""upClick"",""upClick"",""upClick"",""upClick"",""upClick"",""upClick"",""upClick"",""upClick"",""upClick"",""upClick"",""upClick"",""upClick"",""upClick"",""upClick"",""upClick"",""upClick"",""upClick"",""upClick"",""upClick"",""upClick"",""upClick"",""upClick"",""upClick"",""upClick"",""upClick"",""upClick"",""upClick"",""upClick"",""upClick"",""upClick"",""upClick"",""upClick"",""upClick"",""upClick"",""upClick"",""upClick"",""upClick"",""upClick"",""upClick"",""upClick"",""upClick"",""upClick"",""upClick"",""upClick"",""upClick"",""upClick"",""upClick"",""upClick"",""upClick"",""upClick"",""upClick"",""upClick"",""upClick"",""upClick"",""upClick"",""upClick"",""upClick"",""upClick"",""upClick"",""upClick"",""upClick"",""upClick"",""upClick"",""upClick"",""upClick"",""upClick"",""upClick"",""upClick"",""upClick""]",-4,100,0,space,0.726999998,4,0,4,0,1,3,,,,,,,,,,,,,,,,,,,
,,,,,,,,,,,,,,,,,,,,,,,,,,,,,,,,,,,,,,,,,,,,,,1,0,1,0,1,0,,,,,,,PilotWJ3,26,Male,2020-07-13_16h14.17.354,AvatarManual,3.2.2,Win32,60,,,,,300,200,0,const,3.5,101,left,15,-3,"[2,2,2,2,2,2,2,2,2,2,2,2,0,-3,-7,-9,-12,-13,-14,-15,-15,-15,-15,-15,-15,-14,-12,-9,-5,-3,-1,2,5,8,10,12,14,15,15,15,15,15,15,15,15,15,15,15,15,15,14,13,10,9,7,6,3,2,1,1,1,1,1,1,1,1,2,2,3,3,3,3,3,3,3,3,2,2,1,1,1,1,1,1,1,1,1]","[-122,-122,-122,-122,-122,-122,-122,-122,-122,-122,-122,-119,-107,-85,-59,-33,-10,4,17,29,37,41,43,44,47,50,55,60,68,73,76,81,85,89,92,96,100,102,105,106,106,106,106,106,106,106,106,106,106,105,101,91,77,56,34,7,-17,-36,-55,-70,-84,-97,-105,-113,-122,-129,-138,-145,-149,-151,-152,-152,-154,-158,-166,-171,-176,-182,-187,-192,-195,-198,-200,-201,-202,-202,-202]","[0,0,0,0,0,0,0,0,0,0,0,0,0,0,0,0,0,0,0,0,0,0,0,0,0,0,0,0,0,0,0,0,0,0,0,0,0,0,0,0,0,0,0,1,1,1,1,0,0,0,0,0,0,0,0,0,0,0,0,0,0,0,0,0,0,0,0,0,0,0,0,0,0,0,0,0,0,0,0,0,0,0,0,0,0,0,1]","[0,0,0,0,0,0,0,0,0,0,0,0,0,0,0,0,0,0,0,0,0,0,0,0,0,0,0,0,0,0,0,0,0,0,0,0,0,0,0,0,0,0,0,0,0,0,0,0,0,0,0,0,0,0,0,0,0,0,0,0,0,0,0,0,0,0,0,0,0,0,0,0,0,0,0,0,0,0,0,0,0,0,0,0,0,0,0]","[0,0,0,0,0,0,0,0,0,0,0,0,0,0,0,0,0,0,0,0,0,0,0,0,0,0,0,0,0,0,0,0,0,0,0,0,0,0,0,0,0,0,0,0,0,0,0,0,0,0,0,0,0,0,0,0,0,0,0,0,0,0,0,0,0,0,0,0,0,0,0,0,0,0,0,0,0,0,0,0,0,0,0,0,0,0,0]","[0,0.016000032424926758,0.03299999237060547,0.04999995231628418,0.06599998474121094,0.08299994468688965,0.09999990463256836,0.11599993705749512,0.13399982452392578,0.14999985694885254,0.1659998893737793,0.18400001525878906,0.20000004768371582,0.21599984169006348,0.2330000400543213,0.25,0.2669999599456787,0.28299999237060547,0.2999999523162842,0.31599998474121094,0.33299994468688965,0.34999990463256836,0.3659999370574951,0.38299989700317383,0.39999985694885254,0.4159998893737793,0.432999849319458,0.4500000476837158,0.4659998416900635,0.4830000400543213,0.5,0.5160000324249268,0.5329999923706055,0.5499999523162842,0.5659999847412109,0.5829999446868896,0.5999999046325684,0.6159999370574951,0.6329998970031738,0.6499998569488525,0.6659998893737793,0.682999849319458,0.7000000476837158,0.7170000076293945,0.7330000400543213,0.75,0.7669999599456787,0.7829999923706055,0.7999999523162842,0.8169999122619629,0.8339998722076416,0.8509998321533203,0.8669998645782471,0.8839998245239258,0.9010000228881836,0.9170000553131104,0.9340000152587891,0.9509999752044678,0.9670000076293945,0.9839999675750732,1.000999927520752,1.0169999599456787,1.0339999198913574,1.0509998798370361,1.066999912261963,1.0839998722076416,1.1009998321533203,1.116999864578247,1.1339998245239258,1.1499998569488525,1.1670000553131104,1.182999849319458,1.2000000476837158,1.2189998626708984,1.2339999675750732,1.25,1.2669999599456787,1.2839999198913574,1.2999999523162842,1.316999912261963,1.3339998722076416,1.3499999046325684,1.366999864578247,1.3829998970031738,1.3999998569488525,1.4170000553131104,1.432999849319458]",,,"[""stopped"",""stopped"",""stopped"",""stopped"",""stopped"",""stopped"",""stopped"",""stopped"",""stopped"",""stopped"",""stopped"",""stopped"",""stopped"",""stopped"",""stopped"",""stopped"",""stopped"",""stopped"",""stopped"",""stopped"",""stopped"",""stopped"",""stopped"",""stopped"",""stopped"",""stopped"",""stopped"",""stopped"",""stopped"",""stopped"",""stopped"",""stopped"",""stopped"",""stopped"",""stopped"",""stopped"",""stopped"",""stopped"",""stopped"",""stopped"",""stopped"",""stopped"",""stopped"",""stopped"",""stopped"",""stopped"",""stopped"",""stopped"",""stopped"",""stopped"",""stopped"",""stopped"",""stopped"",""stopped"",""stopped"",""stopped"",""stopped"",""stopped"",""stopped"",""stopped"",""stopped"",""stopped"",""stopped"",""stopped"",""stopped"",""stopped"",""stopped"",""stopped"",""stopped"",""stopped"",""stopped"",""stopped"",""stopped"",""stopped"",""stopped"",""stopped"",""stopped"",""stopped"",""stopped"",""stopped"",""stopped"",""stopped"",""stopped"",""stopped"",""stopped"",""stopped"",""stopped"",""stopped"",""stopped"",""stopped"",""stopped"",""stopped"",""stopped"",""stopped"",""stopped"",""stopped"",""stopped"",""stopped"",""stopped"",""stopped"",""stopped"",""stopped"",""stopped"",""stopped"",""stopped"",""stopped"",""stopped"",""stopped"",""stopped"",""stopped"",""stopped"",""stopped"",""stopped"",""stopped"",""stopped"",""stopped"",""stopped"",""stopped"",""stopped"",""stopped"",""stopped""]","[0,0,0,0,0,0,0,0,0,0,0,0,0,0,0,0,0,0,0,0,0,0,0,0,0,0,0,0,0,0,0,0,0,0,0,0,0,0,0,0,0,0,0,0,0,0,0,0,0,0,0,0,0,0,0,0,0,0,0,0,0,0,0,0,0,0,0,0,0,0,0,0,0,0,0,0,0,0,0,0,0,0,0,0,0,0,0,0,0,0,0,0,0,0,0,0,0,0,0,0,0,0,0,0,0,0,0,0,0,0,0,0,0,0,0,0,0,0,0,0,0]",NaN,"[796,796,796,796,796,796,796,796,796,796,796,796,796,796,796,796,796,796,796,796,796,796,796,796,796,796,796,796,796,796,796,796,796,796,796,796,796,796,796,796,796,796,796,796,796,796,796,796,796,796,796,796,796,796,796,796,796,796,796,796,756,619,512,425,351,289,251,228,212,204,200,199,198,198,197,193,186,172,160,148,132,119,108,99,93,88,81,75,66,55,43,31,16,7,0,-6,-8,-10,-11,-11,-11,-11,-10,-10,-10,-10,-10,-10,-10,-10,-10,-10,-9,-9,-11,-19,-19,-19,-19,-19]","[490,490,490,490,490,490,490,490,490,490,490,490,490,490,490,490,490,490,490,490,490,490,490,490,490,490,490,490,490,490,490,490,490,490,490,490,490,490,490,490,490,490,490,490,490,490,490,490,490,490,490,490,490,490,490,490,490,490,490,490,470,364,271,188,119,66,36,18,4,-6,-12,-14,-15,-15,-15,-17,-20,-26,-30,-34,-39,-40,-41,-41,-41,-42,-43,-47,-54,-67,-88,-114,-140,-164,-182,-196,-207,-216,-222,-225,-228,-231,-232,-234,-234,-234,-234,-234,-234,-234,-234,-234,-234,-234,-232,-229,-229,-229,-229,-229]","[0,0,0,0,0,0,0,0,0,0,0,0,0,0,0,0,0,0,0,0,0,0,0,0,0,0,0,0,0,0,0,0,0,0,0,0,0,0,0,0,0,0,0,0,0,0,0,0,0,0,0,0,0,0,0,0,0,0,0,0,0,0,0,0,0,0,0,0,0,0,0,0,0,0,0,0,0,0,0,0,0,0,0,0,0,0,0,0,0,0,0,0,0,0,0,0,0,0,0,0,0,0,0,0,0,0,0,0,0,0,0,0,0,0,0,0,0,0,0,0]","[0,0,0,0,0,0,0,0,0,0,0,0,0,0,0,0,0,0,0,0,0,0,0,0,0,0,0,0,0,0,0,0,0,0,0,0,0,0,0,0,0,0,0,0,0,0,0,0,0,0,0,0,0,0,0,0,0,0,0,0,0,0,0,0,0,0,0,0,0,0,0,0,0,0,0,0,0,0,0,0,0,0,0,0,0,0,0,0,0,0,0,0,0,0,0,0,0,0,0,0,0,0,0,0,0,0,0,0,0,0,0,0,0,0,0,0,0,0,0,0]","[0,0,0,0,0,0,0,0,0,0,0,0,0,0,0,0,0,0,0,0,0,0,0,0,0,0,0,0,0,0,0,0,0,0,0,0,0,0,0,0,0,0,0,0,0,0,0,0,0,0,0,0,0,0,0,0,0,0,0,0,0,0,0,0,0,0,0,0,0,0,0,0,0,0,0,0,0,0,0,0,0,0,0,0,0,0,0,0,0,0,0,0,0,0,0,0,0,0,0,0,0,0,0,0,0,0,0,0,0,0,0,0,0,0,0,0,0,0,0,0]","[0,0.01699995994567871,0.03400015830993652,0.05000019073486328,0.06700015068054199,0.0840001106262207,0.10100007057189941,0.11700010299682617,0.13400006294250488,0.15000009536743164,0.16700005531311035,0.18400001525878906,0.20000004768371582,0.21800017356872559,0.23399996757507324,0.25,0.2669999599456787,0.2840001583099365,0.3000001907348633,0.317000150680542,0.3340001106262207,0.35000014305114746,0.36700010299682617,0.3840000629425049,0.4010000228881836,0.41700005531311035,0.43400001525878906,0.4500000476837158,0.46700000762939453,0.48399996757507324,0.5,0.5169999599456787,0.5360000133514404,0.5500001907348633,0.567000150680542,0.5830001831054688,0.6000001430511475,0.6180000305175781,0.6340000629425049,0.6500000953674316,0.6670000553131104,0.6840000152587891,0.7009999752044678,0.7170000076293945,0.7339999675750732,0.75,0.7669999599456787,0.7840001583099365,0.8000001907348633,0.817000150680542,0.8340001106262207,0.8510000705718994,0.8670001029968262,0.8830001354217529,0.9000000953674316,0.9170000553131104,0.9340000152587891,0.9509999752044678,0.9680001735687256,0.9850001335144043,1.001000165939331,1.0350000858306885,1.0510001182556152,1.068000078201294,1.0840001106262207,1.1010000705718994,1.1180000305175781,1.1349999904632568,1.1510000228881836,1.1679999828338623,1.184000015258789,1.2009999752044678,1.2180001735687256,1.2339999675750732,1.251000165939331,1.2669999599456787,1.2840001583099365,1.3010001182556152,1.318000078201294,1.3350000381469727,1.3510000705718994,1.3680000305175781,1.3849999904632568,1.4010000228881836,1.4190001487731934,1.4350001811981201,1.4520001411437988,1.4670000076293945,1.4839999675750732,1.501000165939331,1.5180001258850098,1.5350000858306885,1.5510001182556152,1.568000078201294,1.5840001106262207,1.6010000705718994,1.6180000305175781,1.6349999904632568,1.6520001888275146,1.6679999828338623,1.684000015258789,1.7009999752044678,1.7180001735687256,1.7339999675750732,1.751000165939331,1.7669999599456787,1.7840001583099365,1.8000001907348633,1.817000150680542,1.8340001106262207,1.8510000705718994,1.8670001029968262,1.8840000629425049,1.9000000953674316,1.9170000553131104,1.937999963760376,1.9830000400543213,2.0169999599456787,2.0340001583099365,2.0510001182556152]","[""upClick"",""upClick"",""downClick"",""downClick"",""downClick"",""downClick"",""downClick"",""downClick"",""downClick"",""downClick"",""downClick"",""downClick"",""downClick"",""downClick"",""downClick"",""downClick"",""downClick"",""downClick"",""downClick"",""downClick"",""downClick"",""downClick"",""downClick"",""downClick""]",15,100,0,space,0.759000301,4,0,4,0,1,3,,,,,,,,,,,,,,,,,,,
,,,,,,,,,,,,,,,,,,,,,,,,,,,,,,,,,,,,,,,,,,,,,,1,0,1,0,1,0,,,,,,,PilotWJ3,26,Male,2020-07-13_16h14.17.354,AvatarManual,3.2.2,Win32,60,,,,,400,300,0,const,3.5,65,right,-10,136,"[-25,-25,-25,-25,-25,-25,-25,-25,-25,-25,-25,-25,-25,-25,-25,-25,-25,-25,-25,-22,-19,-16,-12,-11,-10,-10,-10,-10,-10,-10,-10,-10,-10,-10,-10,-10,-10,-10,-10,-10,-10,-13,-19,-23,-26,-28,-29,-29,-29,-29,-29,-29,-29,-29,-29,-29,-27,-26,-26,-25,-24,-23,-23,-22,-21,-21,-21]","[22,22,23,23,23,23,23,23,23,23,23,23,23,23,23,23,23,24,28,35,44,58,73,82,89,92,93,93,93,93,93,93,93,93,93,93,93,93,85,63,21,-22,-60,-96,-123,-144,-159,-165,-170,-173,-175,-176,-176,-176,-176,-177,-179,-181,-184,-187,-189,-191,-192,-192,-192,-192,-192]","[0,0,0,0,0,0,0,0,0,0,0,0,0,0,0,0,0,0,0,0,0,0,0,0,0,0,0,0,0,0,0,0,1,1,1,0,0,0,0,0,0,0,0,0,0,0,0,0,0,0,0,0,0,0,0,0,0,0,0,0,0,0,0,0,0,0,1]","[0,0,0,0,0,0,0,0,0,0,0,0,0,0,0,0,0,0,0,0,0,0,0,0,0,0,0,0,0,0,0,0,0,0,0,0,0,0,0,0,0,0,0,0,0,0,0,0,0,0,0,0,0,0,0,0,0,0,0,0,0,0,0,0,0,0,0]","[0,0,0,0,0,0,0,0,0,0,0,0,0,0,0,0,0,0,0,0,0,0,0,0,0,0,0,0,0,0,0,0,0,0,0,0,0,0,0,0,0,0,0,0,0,0,0,0,0,0,0,0,0,0,0,0,0,0,0,0,0,0,0,0,0,0,0]","[0,0.014999866485595703,0.032000064849853516,0.04799985885620117,0.06500005722045898,0.0820000171661377,0.09800004959106445,0.11500000953674316,0.13199996948242188,0.14800000190734863,0.16499996185302734,0.18199992179870605,0.1979999542236328,0.21499991416931152,0.23199987411499023,0.247999906539917,0.2649998664855957,0.2820000648498535,0.2990000247955322,0.315000057220459,0.3320000171661377,0.3489999771118164,0.3659999370574951,0.3819999694824219,0.3989999294281006,0.4159998893737793,0.43199992179870605,0.4479999542236328,0.4649999141693115,0.48199987411499023,0.49900007247924805,0.5169999599456787,0.5320000648498535,0.5490000247955322,0.565000057220459,0.5820000171661377,0.5989999771118164,0.6159999370574951,0.6329998970031738,0.6499998569488525,0.6659998893737793,0.682999849319458,0.7009999752044678,0.7160000801086426,0.7330000400543213,0.75,0.7660000324249268,0.7820000648498535,0.7990000247955322,0.8159999847412109,0.8320000171661377,0.8489999771118164,0.8659999370574951,0.8819999694824219,0.8989999294281006,0.9159998893737793,0.931999921798706,0.9489998817443848,0.9660000801086426,0.9830000400543213,0.999000072479248,1.0160000324249268,1.0329999923706055,1.0490000247955322,1.065999984741211,1.0820000171661377,1.0989999771118164]",,,"[""stopped"",""stopped"",""stopped"",""stopped"",""stopped"",""stopped"",""stopped"",""stopped"",""stopped"",""stopped"",""stopped"",""stopped"",""stopped"",""stopped"",""stopped"",""stopped"",""stopped"",""stopped"",""stopped"",""stopped"",""stopped"",""stopped"",""stopped"",""stopped"",""stopped"",""stopped"",""stopped"",""stopped"",""stopped"",""stopped"",""stopped"",""stopped"",""stopped"",""stopped"",""stopped"",""stopped"",""stopped"",""stopped"",""stopped"",""stopped"",""stopped"",""stopped"",""stopped"",""stopped"",""stopped"",""stopped"",""stopped"",""stopped"",""stopped"",""stopped"",""stopped"",""stopped"",""stopped"",""stopped"",""stopped"",""stopped"",""stopped"",""stopped"",""stopped"",""stopped"",""stopped"",""stopped"",""stopped"",""stopped"",""stopped"",""stopped"",""stopped"",""stopped"",""stopped"",""stopped"",""stopped"",""stopped"",""stopped"",""stopped"",""stopped"",""stopped"",""stopped"",""stopped"",""stopped"",""stopped"",""stopped"",""stopped"",""stopped"",""stopped"",""stopped"",""stopped"",""stopped"",""stopped"",""stopped"",""stopped"",""stopped"",""stopped"",""stopped"",""stopped"",""stopped"",""stopped"",""stopped"",""stopped"",""stopped"",""stopped"",""stopped"",""stopped"",""stopped"",""stopped"",""stopped"",""stopped"",""stopped"",""stopped"",""stopped"",""stopped"",""stopped"",""stopped"",""stopped"",""stopped"",""stopped"",""stopped"",""stopped"",""stopped"",""stopped"",""stopped"",""stopped""]","[0,0,0,0,0,0,0,0,0,0,0,0,0,0,0,0,0,0,0,0,0,0,0,0,0,0,0,0,0,0,0,0,0,0,0,0,0,0,0,0,0,0,0,0,0,0,0,0,0,0,0,0,0,0,0,0,0,0,0,0,0,0,0,0,0,0,0,0,0,0,0,0,0,0,0,0,0,0,0,0,0,0,0,0,0,0,0,0,0,0,0,0,0,0,0,0,0,0,0,0,0,0,0,0,0,0,0,0,0,0,0,0,0,0,0,0,0,0,0,0,0]",NaN,"[24,24,24,24,24,24,24,24,24,24,24,24,24,24,24,24,24,24,24,24,24,24,24,24,24,24,24,24,24,24,24,24,24,24,24,24,24,24,24,24,24,24,24,24,24,24,24,24,24,24,24,24,24,24,24,24,24,24,24,24,24,24,24,24,24,24,24,24,24,24,24,24,24,24,24,24,24,24,24,24,24,24,24,24,24,24,24,24,24,24,24,24,24,24,24,24,24,24,24,24,24,24,24,24,24,24,24,24,24,24,24,24,24,24,24,24,24,24,24,24]","[25,25,25,25,25,25,25,25,25,25,25,25,25,25,25,25,25,25,25,25,25,25,25,25,25,25,25,25,25,25,25,25,25,25,25,25,25,25,25,25,25,25,25,25,25,25,25,25,25,25,25,25,25,25,25,25,25,25,25,25,25,25,25,25,25,25,25,25,25,25,25,25,25,25,25,25,25,25,25,25,25,25,25,25,25,25,25,25,25,25,25,25,25,25,25,25,25,25,25,25,25,25,25,25,25,25,25,25,25,25,25,25,25,25,25,25,25,25,25,25]","[0,0,0,0,0,0,0,0,0,0,0,0,0,0,0,0,0,0,0,0,0,0,0,0,0,0,0,0,0,0,0,0,0,0,0,0,0,0,0,0,0,0,0,0,0,0,0,0,0,0,0,0,0,0,0,0,0,0,0,0,0,0,0,0,0,0,0,0,0,0,0,0,0,0,0,0,0,0,0,0,0,0,0,0,0,0,0,0,0,0,0,0,0,0,0,0,0,0,0,0,0,0,0,0,0,0,0,0,0,0,0,0,0,0,0,0,0,0,0,0]","[0,0,0,0,0,0,0,0,0,0,0,0,0,0,0,0,0,0,0,0,0,0,0,0,0,0,0,0,0,0,0,0,0,0,0,0,0,0,0,0,0,0,0,0,0,0,0,0,0,0,0,0,0,0,0,0,0,0,0,0,0,0,0,0,0,0,0,0,0,0,0,0,0,0,0,0,0,0,0,0,0,0,0,0,0,0,0,0,0,0,0,0,0,0,0,0,0,0,0,0,0,0,0,0,0,0,0,0,0,0,0,0,0,0,0,0,0,0,0,0]","[0,0,0,0,0,0,0,0,0,0,0,0,0,0,0,0,0,0,0,0,0,0,0,0,0,0,0,0,0,0,0,0,0,0,0,0,0,0,0,0,0,0,0,0,0,0,0,0,0,0,0,0,0,0,0,0,0,0,0,0,0,0,0,0,0,0,0,0,0,0,0,0,0,0,0,0,0,0,0,0,0,0,0,0,0,0,0,0,0,0,0,0,0,0,0,0,0,0,0,0,0,0,0,0,0,0,0,0,0,0,0,0,0,0,0,0,0,0,0,0]","[0,0.017000198364257812,0.03300023078918457,0.05000019073486328,0.06700015068054199,0.08300018310546875,0.10000014305114746,0.11700010299682617,0.13300013542175293,0.15000009536743164,0.16700005531311035,0.1830000877380371,0.20000004768371582,0.21600008010864258,0.2330000400543213,0.25,0.26600003242492676,0.28300023078918457,0.3000001907348633,0.317000150680542,0.33300018310546875,0.35000014305114746,0.36700010299682617,0.3840000629425049,0.40000009536743164,0.41700005531311035,0.4330000877380371,0.4500000476837158,0.46700000762939453,0.4830000400543213,0.5,0.5180001258850098,0.5330002307891846,0.5500001907348633,0.56600022315979,0.5840001106262207,0.6000001430511475,0.6170001029968262,0.6340000629425049,0.6500000953674316,0.6670000553131104,0.6830000877380371,0.7000000476837158,0.7330000400543213,0.75,0.7670001983642578,0.7840001583099365,0.8000001907348633,0.81600022315979,0.8330001831054688,0.8530001640319824,0.8680000305175781,0.8840000629425049,0.9010000228881836,0.9170000553131104,0.9340000152587891,0.9500000476837158,0.9670000076293945,0.9830000400543213,1,1.0170001983642578,1.0340001583099365,1.0500001907348633,1.067000150680542,1.0840001106262207,1.1000001430511475,1.1170001029968262,1.133000135421753,1.1500000953674316,1.1670000553131104,1.184000015258789,1.2000000476837158,1.2170000076293945,1.2330000400543213,1.25,1.2660000324249268,1.2840001583099365,1.3000001907348633,1.317000150680542,1.3330001831054688,1.3500001430511475,1.3670001029968262,1.383000135421753,1.4000000953674316,1.4170000553131104,1.433000087738037,1.4500000476837158,1.4670000076293945,1.4830000400543213,1.5,1.5190000534057617,1.5340001583099365,1.5500001907348633,1.567000150680542,1.5830001831054688,1.6000001430511475,1.6170001029968262,1.633000135421753,1.6500000953674316,1.6670000553131104,1.683000087738037,1.7000000476837158,1.7170000076293945,1.7330000400543213,1.753000020980835,1.7680001258850098,1.7950000762939453,1.817000150680542,1.8330001831054688,1.8500001430511475,1.8670001029968262,1.883000135421753,1.9050002098083496,1.9170000553131104,1.933000087738037,1.9500000476837158,1.9660000801086426,1.9840002059936523,2,2.0160000324249268]",[],-10,100,0,space,0.967000246,4,0,4,0,1,3,,,,,,,,,,,,,,,,,,,
,,,,,,,,,,,,,,,,,,,,,,,,,,,,,,,,,,,,,,,,,,,,,,1,0,1,0,1,0,,,,,,,PilotWJ3,26,Male,2020-07-13_16h14.17.354,AvatarManual,3.2.2,Win32,60,,,,,,,,,,,,,,,,,,,,,,,,,,,,,,,,,,,,,,,,,,,space,1.667999983,"[1,1,1,1,1,1,1,1,1,1,1,1,1,1,1,1,1,1,1,1,1,1,1,1,1,1,1,1,1,1,1,4,10,20,26,31,36,40,43,44,44,45,45,45,45,45,45,45,45,45,45,44,44,44,44,43,43]","[108,108,108,108,108,108,108,108,108,108,108,108,108,108,108,108,108,108,108,108,108,108,108,108,108,108,108,108,108,105,92,70,44,12,-8,-21,-33,-44,-52,-56,-57,-58,-58,-58,-58,-58,-58,-58,-58,-59,-59,-60,-60,-60,-60,-60,-60]","[0,0,0,0,0,0,0,0,0,0,0,0,0,0,0,0,0,0,0,0,0,0,0,0,0,0,0,0,0,0,0,0,0,0,0,0,0,0,0,0,0,0,0,0,0,0,0,0,0,0,0,0,0,0,0,0,0]","[0,0,0,0,0,0,0,0,0,0,0,0,0,0,0,0,0,0,0,0,0,0,0,0,0,0,0,0,0,0,0,0,0,0,0,0,0,0,0,0,0,0,0,0,0,0,0,0,0,0,0,0,0,0,0,0,0]","[0,0,0,0,0,0,0,0,0,0,0,0,0,0,0,0,0,0,0,0,0,0,0,0,0,0,0,0,0,0,0,0,0,0,0,0,0,0,0,0,0,0,0,0,0,0,0,0,0,0,0,0,0,0,0,0,0]","[0,0.029000043869018555,0.046000003814697266,0.06299996376037598,0.07899999618530273,0.09599995613098145,0.11299991607666016,0.12899994850158691,0.14599990844726562,0.16300010681152344,0.1789999008178711,0.1960000991821289,0.21300005912780762,0.22900009155273438,0.24600005149841309,0.26200008392333984,0.27900004386901855,0.29600000381469727,0.312000036239624,0.32899999618530273,0.34599995613098145,0.3619999885559082,0.3789999485015869,0.3970000743865967,0.41300010681152344,0.4289999008178711,0.4460000991821289,0.4630000591278076,0.4790000915527344,0.49699997901916504,0.5130000114440918,0.5299999713897705,0.5460000038146973,0.5639998912811279,0.5799999237060547,0.5959999561309814,0.6129999160766602,0.630000114440918,0.6470000743865967,0.6630001068115234,0.6800000667572021,0.6960000991821289,0.7119998931884766,0.7290000915527344,0.7460000514984131,0.7630000114440918,0.7790000438690186,0.7960000038146973,0.812000036239624,0.8310000896453857,0.8459999561309814,0.8629999160766602,0.8789999485015869,0.8959999084472656,0.9130001068115234,0.9300000667572021,0.9460000991821289]",space,0.92200017,300,0,8,0,8,0,1,7,
,,,,,,,,,,,,,,,,,,,,,,,,,,,,,,,,,,,,,,,,,,,,,,1,0,1,0,1,0,,,,,,,PilotWJ3,26,Male,2020-07-13_16h14.17.354,AvatarManual,3.2.2,Win32,60,,,,,,,,,,,,,,,,,,,,,,,,,,,,,,,,,,,,,,,,,,,,,"[43,43,43,43,43,43,43,43,43,43,43,43,43,43,43,43,43,43,43,43,43,43,43,43,43]","[-60,-60,-60,-60,-60,-60,-60,-60,-60,-60,-60,-60,-60,-60,-60,-60,-60,-60,-60,-60,-60,-60,-60,-60,-60]","[0,0,0,0,0,0,0,0,0,0,0,0,0,0,0,0,0,0,0,0,0,0,0,0,0]","[0,0,0,0,0,0,0,0,0,0,0,0,0,0,0,0,0,0,0,0,0,0,0,0,0]","[0,0,0,0,0,0,0,0,0,0,0,0,0,0,0,0,0,0,0,0,0,0,0,0,0]","[0,0.031000137329101562,0.04800009727478027,0.06400012969970703,0.08100008964538574,0.09800004959106445,0.11400008201599121,0.13100004196166992,0.14800000190734863,0.16499996185302734,0.1809999942779541,0.1979999542236328,0.21500015258789062,0.23099994659423828,0.2480001449584961,0.2650001049041748,0.28100013732910156,0.2980000972747803,0.31400012969970703,0.33100008964538574,0.34800004959106445,0.36500000953674316,0.3810000419616699,0.39800000190734863,0.41499996185302734]",space,0.390000105,400,0,8,0,8,0,1,7,
,,,,,,,,,,,,,,,,,,,,,,,,,,,,,,,,,,,,,,,,,,,,,,1,0,1,0,1,0,,,,,,,PilotWJ3,26,Male,2020-07-13_16h14.17.354,AvatarManual,3.2.2,Win32,60,,,,,,,,,,,,,,,,,,,,,,,,,,,,,,,,,,,,,,,,,,,,,"[43,43,43,43,43,43,43,43,43,43,43,43,43,43,43,43,43,43,43]","[-60,-60,-60,-60,-60,-60,-60,-60,-60,-60,-60,-60,-60,-60,-60,-60,-60,-60,-60]","[0,0,0,0,0,0,0,0,0,0,0,0,0,0,0,0,0,0,0]","[0,0,0,0,0,0,0,0,0,0,0,0,0,0,0,0,0,0,0]","[0,0,0,0,0,0,0,0,0,0,0,0,0,0,0,0,0,0,0]","[0,0.014999866485595703,0.031999826431274414,0.04900002479553223,0.06599998474121094,0.0820000171661377,0.09799981117248535,0.11500000953674316,0.13199996948242188,0.14800000190734863,0.16499996185302734,0.18199992179870605,0.19899988174438477,0.21499991416931152,0.23199987411499023,0.247999906539917,0.2649998664855957,0.2819998264312744,0.29799985885620117]",space,0.28000021,400,0,8,0,8,0,1,7,
,,,,,,,,,,,,,,,,,,,,,,,,,,,,,,,,,,,,,,,,,,,,,,1,0,1,0,1,0,,,,,,,PilotWJ3,26,Male,2020-07-13_16h14.17.354,AvatarManual,3.2.2,Win32,60,,,,,,,,,,,,,,,,,,,,,,,,,,,,,,,,,,,,,,,,,,,,,"[43,43,43,43,43,43,43,43,43,43,43,43,43,43,43,43,43,43,43]","[-60,-60,-60,-60,-60,-60,-60,-60,-60,-60,-60,-60,-60,-60,-60,-60,-60,-60,-60]","[0,0,0,0,0,0,0,0,0,0,0,0,0,0,0,0,0,0,0]","[0,0,0,0,0,0,0,0,0,0,0,0,0,0,0,0,0,0,0]","[0,0,0,0,0,0,0,0,0,0,0,0,0,0,0,0,0,0,0]","[0,0.015999794006347656,0.03299999237060547,0.04999995231628418,0.06599998474121094,0.08299994468688965,0.09999990463256836,0.11599993705749512,0.13299989700317383,0.14999985694885254,0.16699981689453125,0.182999849319458,0.19899988174438477,0.21700000762939453,0.2329998016357422,0.25,0.2669999599456787,0.28299999237060547,0.2999999523162842]",space,0.281000137,200,0,8,0,8,0,1,7,
,,,,,,,,,,,,,,,,,,,,,,,,,,,,,,,,,,,,,,,,,,,,,,1,0,1,0,1,0,,,,,,,PilotWJ3,26,Male,2020-07-13_16h14.17.354,AvatarManual,3.2.2,Win32,60,,,,,,,,,,,,,,,,,,,,,,,,,,,,,,,,,,,,,,,,,,,,,"[43,43,43,43,43,43,43,43,43,43,43,43,43,43,43,43,43,43,43,43,43]","[-60,-60,-60,-60,-60,-60,-60,-60,-60,-60,-60,-60,-60,-60,-60,-60,-60,-60,-60,-60,-60]","[0,0,0,0,0,0,0,0,0,0,0,0,0,0,0,0,0,0,0,0,0]","[0,0,0,0,0,0,0,0,0,0,0,0,0,0,0,0,0,0,0,0,0]","[0,0,0,0,0,0,0,0,0,0,0,0,0,0,0,0,0,0,0,0,0]","[0,0.014000177383422852,0.031000137329101562,0.04800009727478027,0.06400012969970703,0.08100008964538574,0.09800004959106445,0.11400008201599121,0.13100004196166992,0.14800000190734863,0.1640000343322754,0.1809999942779541,0.19700002670288086,0.21399998664855957,0.23100018501281738,0.24699997901916504,0.26400017738342285,0.28100013732910156,0.2980000972747803,0.31400012969970703,0.33100008964538574]",space,0.316000223,500,0,8,0,8,0,1,7,
,,,,,,,,,,,,,,,,,,,,,,,,,,,,,,,,,,,,,,,,,,,,,,1,0,1,0,1,0,,,,,,,PilotWJ3,26,Male,2020-07-13_16h14.17.354,AvatarManual,3.2.2,Win32,60,,,,,,,,,,,,,,,,,,,,,,,,,,,,,,,,,,,,,,,,,,,,,"[43,43,43,43,43,43,43,43,43,43,43,43,43,43,43,43,43,43,43,43]","[-60,-60,-60,-60,-60,-60,-60,-60,-60,-60,-60,-60,-60,-60,-60,-60,-60,-60,-60,-60]","[0,0,0,0,0,0,0,0,0,0,0,0,0,0,0,0,0,0,0,0]","[0,0,0,0,0,0,0,0,0,0,0,0,0,0,0,0,0,0,0,0]","[0,0,0,0,0,0,0,0,0,0,0,0,0,0,0,0,0,0,0,0]","[0,0.016000032424926758,0.032000064849853516,0.04900002479553223,0.06599998474121094,0.0820000171661377,0.0989999771118164,0.11600017547607422,0.13199996948242188,0.1490001678466797,0.1660001277923584,0.1830000877380371,0.19900012016296387,0.21600008010864258,0.2330000400543213,0.25,0.26600003242492676,0.2820000648498535,0.2990000247955322,0.31599998474121094]",space,0.299000263,500,0,8,0,8,0,1,7,
,,,,,,,,,,,,,,,,,,,,,,,,,,,,,,,,,,,,,,,,,,,,,,1,0,1,0,1,0,,,,,,,PilotWJ3,26,Male,2020-07-13_16h14.17.354,AvatarManual,3.2.2,Win32,60,,,,,,,,,,,,,,,,,,,,,,,,,,,,,,,,,,,,,,,,,,,,,"[43,43,43,43,43,43,43,43,43,43,43,43,43,43,43,43,43,43,43,43,43]","[-60,-60,-60,-60,-60,-60,-60,-60,-60,-60,-60,-60,-60,-60,-60,-60,-60,-60,-60,-60,-60]","[0,0,0,0,0,0,0,0,0,0,0,0,0,0,0,0,0,0,0,0,0]","[0,0,0,0,0,0,0,0,0,0,0,0,0,0,0,0,0,0,0,0,0]","[0,0,0,0,0,0,0,0,0,0,0,0,0,0,0,0,0,0,0,0,0]","[0,0.03099989891052246,0.04800009727478027,0.06500005722045898,0.08100008964538574,0.09800004959106445,0.11500000953674316,0.13100004196166992,0.14800000190734863,0.1640000343322754,0.1809999942779541,0.1979999542236328,0.21499991416931152,0.23099994659423828,0.247999906539917,0.26399993896484375,0.28099989891052246,0.2980000972747803,0.31399989128112793,0.33100008964538574,0.34800004959106445]",space,0.321000338,200,0,8,0,8,0,1,7,
,,,,,,,,,,,,,,,,,,,,,,,,,,,,,,,,,,,,,,,,,,,,,,1,0,1,0,1,0,,,,,,,PilotWJ3,26,Male,2020-07-13_16h14.17.354,AvatarManual,3.2.2,Win32,60,,,,,,,,,,,,,,,,,,,,,,,,,,,,,,,,,,,,,,,,,,,,,"[43,43,43,43,43,43,43,43,43,43,43,43,43,43,43,43,43,43,43,43,43,43,43,43]","[-60,-60,-60,-60,-60,-60,-60,-60,-60,-60,-60,-60,-60,-60,-60,-60,-60,-60,-60,-60,-60,-60,-60,-60]","[0,0,0,0,0,0,0,0,0,0,0,0,0,0,0,0,0,0,0,0,0,0,0,0]","[0,0,0,0,0,0,0,0,0,0,0,0,0,0,0,0,0,0,0,0,0,0,0,0]","[0,0,0,0,0,0,0,0,0,0,0,0,0,0,0,0,0,0,0,0,0,0,0,0]","[0,0.015000104904174805,0.032000064849853516,0.04900002479553223,0.06500005722045898,0.0820000171661377,0.0989999771118164,0.11500000953674316,0.13199996948242188,0.14899992942810059,0.16499996185302734,0.18199992179870605,0.19900012016296387,0.21600008010864258,0.23200011253356934,0.24900007247924805,0.26600003242492676,0.2820000648498535,0.2990000247955322,0.31599998474121094,0.3320000171661377,0.3489999771118164,0.36500000953674316,0.3819999694824219]",space,0.359000206,300,0,8,0,8,0,1,7,
,,,,,,,,,,,,,,,,,,,,,,,,,,,,,,,,,,,,,,,,,,,,,,,,,,,,,,,,,,PilotWJ3,26,Male,2020-07-13_16h14.17.354,AvatarManual,3.2.2,Win32,60,,,,,,,,,,,,,,,,,,,,,,,,,,,,,,,,,,,,,,,,,,,,,,,,,,,,,,,,,,,,,98942
