Browser,true_x_res,true_y_res,x_adjustment,y_adjustment,Params_TravelTime,Params_yOffset,Params_Reach,Params_ScreenWidth,Params_ScreenHeight,Params_Hz,Params_HzScale,Params_conf_linewidth,params_consent,ConsentLoop.thisRepN,ConsentLoop.thisTrialN,ConsentLoop.thisN,ConsentLoop.thisIndex,ConsentLoop.ran,ConsentLoop.order,participant,Age,Gender,date,expName,psychopyVersion,OS,frameRate,PROLIFIC_PID,STUDY_ID,SESSION_ID,Demo_speedCond,Demo_delta,Demo_xposTarget,Demo_yposTarget,Demo_Delay,Demo_AvSpeed,Demo_Success,Demo_motion,Demo_Click,Demo_RTms,Demo_finalX,Demo_finalY,Trial_duration,BlockLoop.thisRepN,BlockLoop.thisTrialN,BlockLoop.thisN,BlockLoop.thisIndex,BlockLoop.ran,BlockLoop.order,DemoLoop.thisRepN,DemoLoop.thisTrialN,DemoLoop.thisN,DemoLoop.thisIndex,DemoLoop.ran,DemoLoop.order,Decision_Delta,Decision_xposTarget,Decision_yposTarget,Decision_SpeedCond,Decision_AvSpeed,Decision_delay,Decision_targetSide,Decision_placement,Decision_initplace,Decision_Driving,Decision_Click,Decision_RTms,Decision_finalX,Decision_finalY,Decision_success,DecisionTrialLoop.thisRepN,DecisionTrialLoop.thisTrialN,DecisionTrialLoop.thisN,DecisionTrialLoop.thisIndex,DecisionTrialLoop.ran,DecisionTrialLoop.order,Confidence_Delta,Confidence_resp,ConfidenceLoop.thisRepN,ConfidenceLoop.thisTrialN,ConfidenceLoop.thisN,ConfidenceLoop.thisIndex,ConfidenceLoop.ran,ConfidenceLoop.order,exp_duration
Chrome,1920,937,1,1,120,100,45,1200,600,60,1,300,Agreed,3,0,3,0,1,2,5c93106f765dad0015f840ff,20,Male,2020-07-27_17h59.41.296,AvatarAutomaticProl,3.2.2,Win32,60,5c93106f765dad0015f840ff,5f1b026ff9f4e82811599350,5f1eebbd4ebbc005b2d130a3,,,,,,,,,,,,,,,,,,,,,,,,,,,,,,,,,,,,,,,,,,,,,,,,,,,,,,,
,,,,,,,,,,,,,Agreed,3,0,3,0,1,2,5c93106f765dad0015f840ff,20,Male,2020-07-27_17h59.41.296,AvatarAutomaticProl,3.2.2,Win32,60,5c93106f765dad0015f840ff,5f1b026ff9f4e82811599350,5f1eebbd4ebbc005b2d130a3,,,,,,,,,,,,,,,,,,,,,,,,,,,,,,,,,,,,,,,,,,,,,,,,,,,,,,,
,,,,,,,,,,,,,Agreed,3,0,3,0,1,2,5c93106f765dad0015f840ff,20,Male,2020-07-27_17h59.41.296,AvatarAutomaticProl,3.2.2,Win32,60,5c93106f765dad0015f840ff,5f1b026ff9f4e82811599350,5f1eebbd4ebbc005b2d130a3,,,,,,,,,,,,,,,,,,,,,,,,,,,,,,,,,,,,,,,,,,,,,,,,,,,,,,,
,,,,,,,,,,,,,,,,,,,,5c93106f765dad0015f840ff,20,Male,2020-07-27_17h59.41.296,AvatarAutomaticProl,3.2.2,Win32,60,5c93106f765dad0015f840ff,5f1b026ff9f4e82811599350,5f1eebbd4ebbc005b2d130a3,const,500,400,0,121,3.5,0,[],[],517.7,196,5.5,10370,1,0,1,0,1,0,48,0,48,0,1,47,,,,,,,,,,,,,,,,,,,,,,,,,,,,,,
,,,,,,,,,,,,,,,,,,,,5c93106f765dad0015f840ff,20,Male,2020-07-27_17h59.41.296,AvatarAutomaticProl,3.2.2,Win32,60,5c93106f765dad0015f840ff,5f1b026ff9f4e82811599350,5f1eebbd4ebbc005b2d130a3,,400,-300,0,137,3.5,0,[],[],317.3,-252,9,8773,1,0,1,0,1,0,48,0,48,0,1,47,,,,,,,,,,,,,,,,,,,,,,,,,,,,,,
,,,,,,,,,,,,,,,,,,,,5c93106f765dad0015f840ff,20,Male,2020-07-27_17h59.41.296,AvatarAutomaticProl,3.2.2,Win32,60,5c93106f765dad0015f840ff,5f1b026ff9f4e82811599350,5f1eebbd4ebbc005b2d130a3,,500,-400,0,102,3.5,0,[],[],167,-283.5,19.5,8968,1,0,1,0,1,0,48,0,48,0,1,47,,,,,,,,,,,,,,,,,,,,,,,,,,,,,,
,,,,,,,,,,,,,,,,,,,,5c93106f765dad0015f840ff,20,Male,2020-07-27_17h59.41.296,AvatarAutomaticProl,3.2.2,Win32,60,5c93106f765dad0015f840ff,5f1b026ff9f4e82811599350,5f1eebbd4ebbc005b2d130a3,,200,100,0,117,3.5,1,[],[],334,56,-1.5,6737,1,0,1,0,1,0,48,0,48,0,1,47,,,,,,,,,,,,,,,,,,,,,,,,,,,,,,
,,,,,,,,,,,,,,,,,,,,5c93106f765dad0015f840ff,20,Male,2020-07-27_17h59.41.296,AvatarAutomaticProl,3.2.2,Win32,60,5c93106f765dad0015f840ff,5f1b026ff9f4e82811599350,5f1eebbd4ebbc005b2d130a3,,200,100,0,88,3.5,1,[],[],317.3,56,-1.5,4167,1,0,1,0,1,0,48,0,48,0,1,47,,,,,,,,,,,,,,,,,,,,,,,,,,,,,,
,,,,,,,,,,,,,,,,,,,,5c93106f765dad0015f840ff,20,Male,2020-07-27_17h59.41.296,AvatarAutomaticProl,3.2.2,Win32,60,5c93106f765dad0015f840ff,5f1b026ff9f4e82811599350,5f1eebbd4ebbc005b2d130a3,,300,-200,0,74,3.5,1,[],[],467.6,-157.5,-1.5,4501,1,0,1,0,1,0,48,0,48,0,1,47,,,,,,,,,,,,,,,,,,,,,,,,,,,,,,
,,,,,,,,,,,,,,,,,,,,5c93106f765dad0015f840ff,20,Male,2020-07-27_17h59.41.296,AvatarAutomaticProl,3.2.2,Win32,60,5c93106f765dad0015f840ff,5f1b026ff9f4e82811599350,5f1eebbd4ebbc005b2d130a3,,300,-200,0,122,3.5,1,[],[],534.4,-157.5,12.5,5119,1,0,1,0,1,0,48,0,48,0,1,47,,,,,,,,,,,,,,,,,,,,,,,,,,,,,,
,,,,,,,,,,,,,,,,,,,,5c93106f765dad0015f840ff,20,Male,2020-07-27_17h59.41.296,AvatarAutomaticProl,3.2.2,Win32,60,5c93106f765dad0015f840ff,5f1b026ff9f4e82811599350,5f1eebbd4ebbc005b2d130a3,,400,300,0,101,3.5,0,[],[],400.8,227.5,2,7104,1,0,1,0,1,0,48,0,48,0,1,47,,,,,,,,,,,,,,,,,,,,,,,,,,,,,,
,,,,,,,,,,,,,,,,,,,,5c93106f765dad0015f840ff,20,Male,2020-07-27_17h59.41.296,AvatarAutomaticProl,3.2.2,Win32,60,5c93106f765dad0015f840ff,5f1b026ff9f4e82811599350,5f1eebbd4ebbc005b2d130a3,,400,-300,0,70,3.5,0,[],[],484.3,-182,-12,4631,1,0,1,0,1,0,48,0,48,0,1,47,,,,,,,,,,,,,,,,,,,,,,,,,,,,,,
,,,,,,,,,,,,,,,,,,,,5c93106f765dad0015f840ff,20,Male,2020-07-27_17h59.41.296,AvatarAutomaticProl,3.2.2,Win32,60,5c93106f765dad0015f840ff,5f1b026ff9f4e82811599350,5f1eebbd4ebbc005b2d130a3,,200,100,0,99,3.5,1,[],[],350.7,56,-5,3981,1,0,1,0,1,0,48,0,48,0,1,47,,,,,,,,,,,,,,,,,,,,,,,,,,,,,,
,,,,,,,,,,,,,,,,,,,,5c93106f765dad0015f840ff,20,Male,2020-07-27_17h59.41.296,AvatarAutomaticProl,3.2.2,Win32,60,5c93106f765dad0015f840ff,5f1b026ff9f4e82811599350,5f1eebbd4ebbc005b2d130a3,,200,-100,0,63,3.5,1,[],[],283.9,-59.5,19.5,3965,1,0,1,0,1,0,48,0,48,0,1,47,,,,,,,,,,,,,,,,,,,,,,,,,,,,,,
,,,,,,,,,,,,,,,,,,,,5c93106f765dad0015f840ff,20,Male,2020-07-27_17h59.41.296,AvatarAutomaticProl,3.2.2,Win32,60,5c93106f765dad0015f840ff,5f1b026ff9f4e82811599350,5f1eebbd4ebbc005b2d130a3,,500,-400,0,109,3.5,0,[],[],334,-3.5,9,6798,1,0,1,0,1,0,48,0,48,0,1,47,,,,,,,,,,,,,,,,,,,,,,,,,,,,,,
,,,,,,,,,,,,,,,,,,,,5c93106f765dad0015f840ff,20,Male,2020-07-27_17h59.41.296,AvatarAutomaticProl,3.2.2,Win32,60,5c93106f765dad0015f840ff,5f1b026ff9f4e82811599350,5f1eebbd4ebbc005b2d130a3,,300,-200,0,136,3.5,1,[],[],400.8,-161,-15.5,5230,1,0,1,0,1,0,48,0,48,0,1,47,,,,,,,,,,,,,,,,,,,,,,,,,,,,,,
,,,,,,,,,,,,,,,,,,,,5c93106f765dad0015f840ff,20,Male,2020-07-27_17h59.41.296,AvatarAutomaticProl,3.2.2,Win32,60,5c93106f765dad0015f840ff,5f1b026ff9f4e82811599350,5f1eebbd4ebbc005b2d130a3,,200,-100,0,79,3.5,1,[],[],300.6,-59.5,12.5,3737,1,0,1,0,1,0,48,0,48,0,1,47,,,,,,,,,,,,,,,,,,,,,,,,,,,,,,
,,,,,,,,,,,,,,,,,,,,5c93106f765dad0015f840ff,20,Male,2020-07-27_17h59.41.296,AvatarAutomaticProl,3.2.2,Win32,60,5c93106f765dad0015f840ff,5f1b026ff9f4e82811599350,5f1eebbd4ebbc005b2d130a3,,200,100,0,89,3.5,1,[],[],517.7,56,5.5,4003,1,0,1,0,1,0,48,0,48,0,1,47,,,,,,,,,,,,,,,,,,,,,,,,,,,,,,
,,,,,,,,,,,,,,,,,,,,5c93106f765dad0015f840ff,20,Male,2020-07-27_17h59.41.296,AvatarAutomaticProl,3.2.2,Win32,60,5c93106f765dad0015f840ff,5f1b026ff9f4e82811599350,5f1eebbd4ebbc005b2d130a3,,400,300,0,126,3.5,0,[],[],417.5,227.5,5.5,7917,1,0,1,0,1,0,48,0,48,0,1,47,,,,,,,,,,,,,,,,,,,,,,,,,,,,,,
,,,,,,,,,,,,,,,,,,,,5c93106f765dad0015f840ff,20,Male,2020-07-27_17h59.41.296,AvatarAutomaticProl,3.2.2,Win32,60,5c93106f765dad0015f840ff,5f1b026ff9f4e82811599350,5f1eebbd4ebbc005b2d130a3,,300,-200,0,79,3.5,1,[],[],267.2,-161,16,5299,1,0,1,0,1,0,48,0,48,0,1,47,,,,,,,,,,,,,,,,,,,,,,,,,,,,,,
,,,,,,,,,,,,,,,,,,,,5c93106f765dad0015f840ff,20,Male,2020-07-27_17h59.41.296,AvatarAutomaticProl,3.2.2,Win32,60,5c93106f765dad0015f840ff,5f1b026ff9f4e82811599350,5f1eebbd4ebbc005b2d130a3,,400,300,0,120,3.5,0,[],[],334,224,-19,5396,1,0,1,0,1,0,48,0,48,0,1,47,,,,,,,,,,,,,,,,,,,,,,,,,,,,,,
,,,,,,,,,,,,,,,,,,,,5c93106f765dad0015f840ff,20,Male,2020-07-27_17h59.41.296,AvatarAutomaticProl,3.2.2,Win32,60,5c93106f765dad0015f840ff,5f1b026ff9f4e82811599350,5f1eebbd4ebbc005b2d130a3,,300,-200,0,111,3.5,1,[],[],367.4,-157.5,-12,5028,1,0,1,0,1,0,48,0,48,0,1,47,,,,,,,,,,,,,,,,,,,,,,,,,,,,,,
,,,,,,,,,,,,,,,,,,,,5c93106f765dad0015f840ff,20,Male,2020-07-27_17h59.41.296,AvatarAutomaticProl,3.2.2,Win32,60,5c93106f765dad0015f840ff,5f1b026ff9f4e82811599350,5f1eebbd4ebbc005b2d130a3,,200,-100,0,103,3.5,1,[],[],217.1,-56,-8.5,3739,1,0,1,0,1,0,48,0,48,0,1,47,,,,,,,,,,,,,,,,,,,,,,,,,,,,,,
,,,,,,,,,,,,,,,,,,,,5c93106f765dad0015f840ff,20,Male,2020-07-27_17h59.41.296,AvatarAutomaticProl,3.2.2,Win32,60,5c93106f765dad0015f840ff,5f1b026ff9f4e82811599350,5f1eebbd4ebbc005b2d130a3,,300,-200,0,118,3.5,1,[],[],283.9,-157.5,12.5,4715,1,0,1,0,1,0,48,0,48,0,1,47,,,,,,,,,,,,,,,,,,,,,,,,,,,,,,
,,,,,,,,,,,,,,,,,,,,5c93106f765dad0015f840ff,20,Male,2020-07-27_17h59.41.296,AvatarAutomaticProl,3.2.2,Win32,60,5c93106f765dad0015f840ff,5f1b026ff9f4e82811599350,5f1eebbd4ebbc005b2d130a3,,400,300,0,115,3.5,0,[],[],384.1,224,12.5,5667,1,0,1,0,1,0,48,0,48,0,1,47,,,,,,,,,,,,,,,,,,,,,,,,,,,,,,
,,,,,,,,,,,,,,,,,,,,5c93106f765dad0015f840ff,20,Male,2020-07-27_17h59.41.296,AvatarAutomaticProl,3.2.2,Win32,60,5c93106f765dad0015f840ff,5f1b026ff9f4e82811599350,5f1eebbd4ebbc005b2d130a3,,300,-200,0,113,3.5,1,[],[],233.8,-157.5,-5,6181,1,0,1,0,1,0,48,0,48,0,1,47,,,,,,,,,,,,,,,,,,,,,,,,,,,,,,
,,,,,,,,,,,,,,,,,,,,5c93106f765dad0015f840ff,20,Male,2020-07-27_17h59.41.296,AvatarAutomaticProl,3.2.2,Win32,60,5c93106f765dad0015f840ff,5f1b026ff9f4e82811599350,5f1eebbd4ebbc005b2d130a3,,300,-200,0,127,3.5,1,[],[],367.4,-157.5,2,5104,1,0,1,0,1,0,48,0,48,0,1,47,,,,,,,,,,,,,,,,,,,,,,,,,,,,,,
,,,,,,,,,,,,,,,,,,,,5c93106f765dad0015f840ff,20,Male,2020-07-27_17h59.41.296,AvatarAutomaticProl,3.2.2,Win32,60,5c93106f765dad0015f840ff,5f1b026ff9f4e82811599350,5f1eebbd4ebbc005b2d130a3,,500,-400,0,126,3.5,0,[],[],200.4,-262.5,-12,5882,1,0,1,0,1,0,48,0,48,0,1,47,,,,,,,,,,,,,,,,,,,,,,,,,,,,,,
,,,,,,,,,,,,,,,,,,,,5c93106f765dad0015f840ff,20,Male,2020-07-27_17h59.41.296,AvatarAutomaticProl,3.2.2,Win32,60,5c93106f765dad0015f840ff,5f1b026ff9f4e82811599350,5f1eebbd4ebbc005b2d130a3,,200,-100,0,116,3.5,1,[],[],283.9,-56,-5,45105,1,0,1,0,1,0,48,0,48,0,1,47,,,,,,,,,,,,,,,,,,,,,,,,,,,,,,
,,,,,,,,,,,,,,,,,,,,5c93106f765dad0015f840ff,20,Male,2020-07-27_17h59.41.296,AvatarAutomaticProl,3.2.2,Win32,60,5c93106f765dad0015f840ff,5f1b026ff9f4e82811599350,5f1eebbd4ebbc005b2d130a3,,200,-100,0,63,3.5,1,[],[],400.8,-59.5,12.5,3612,1,0,1,0,1,0,48,0,48,0,1,47,,,,,,,,,,,,,,,,,,,,,,,,,,,,,,
,,,,,,,,,,,,,,,,,,,,5c93106f765dad0015f840ff,20,Male,2020-07-27_17h59.41.296,AvatarAutomaticProl,3.2.2,Win32,60,5c93106f765dad0015f840ff,5f1b026ff9f4e82811599350,5f1eebbd4ebbc005b2d130a3,,200,100,0,77,3.5,1,[],[],334,56,-5,4333,1,0,1,0,1,0,48,0,48,0,1,47,,,,,,,,,,,,,,,,,,,,,,,,,,,,,,
,,,,,,,,,,,,,,,,,,,,5c93106f765dad0015f840ff,20,Male,2020-07-27_17h59.41.296,AvatarAutomaticProl,3.2.2,Win32,60,5c93106f765dad0015f840ff,5f1b026ff9f4e82811599350,5f1eebbd4ebbc005b2d130a3,,300,200,0,70,3.5,1,[],[],300.6,157.5,2,4431,1,0,1,0,1,0,48,0,48,0,1,47,,,,,,,,,,,,,,,,,,,,,,,,,,,,,,
,,,,,,,,,,,,,,,,,,,,5c93106f765dad0015f840ff,20,Male,2020-07-27_17h59.41.296,AvatarAutomaticProl,3.2.2,Win32,60,5c93106f765dad0015f840ff,5f1b026ff9f4e82811599350,5f1eebbd4ebbc005b2d130a3,,500,-400,0,134,3.5,0,[],[],317.3,-259,5.5,6455,1,0,1,0,1,0,48,0,48,0,1,47,,,,,,,,,,,,,,,,,,,,,,,,,,,,,,
,,,,,,,,,,,,,,,,,,,,5c93106f765dad0015f840ff,20,Male,2020-07-27_17h59.41.296,AvatarAutomaticProl,3.2.2,Win32,60,5c93106f765dad0015f840ff,5f1b026ff9f4e82811599350,5f1eebbd4ebbc005b2d130a3,,500,400,0,121,3.5,0,[],[],384.1,217,2,8035,1,0,1,0,1,0,48,0,48,0,1,47,,,,,,,,,,,,,,,,,,,,,,,,,,,,,,
,,,,,,,,,,,,,,,,,,,,5c93106f765dad0015f840ff,20,Male,2020-07-27_17h59.41.296,AvatarAutomaticProl,3.2.2,Win32,60,5c93106f765dad0015f840ff,5f1b026ff9f4e82811599350,5f1eebbd4ebbc005b2d130a3,,500,400,0,123,3.5,0,[],[],283.9,56,-5,5236,1,0,1,0,1,0,48,0,48,0,1,47,,,,,,,,,,,,,,,,,,,,,,,,,,,,,,
,,,,,,,,,,,,,,,,,,,,5c93106f765dad0015f840ff,20,Male,2020-07-27_17h59.41.296,AvatarAutomaticProl,3.2.2,Win32,60,5c93106f765dad0015f840ff,5f1b026ff9f4e82811599350,5f1eebbd4ebbc005b2d130a3,,300,-200,0,93,3.5,1,[],[],484.3,-157.5,5.5,5430,1,0,1,0,1,0,48,0,48,0,1,47,,,,,,,,,,,,,,,,,,,,,,,,,,,,,,
,,,,,,,,,,,,,,,,,,,,5c93106f765dad0015f840ff,20,Male,2020-07-27_17h59.41.296,AvatarAutomaticProl,3.2.2,Win32,60,5c93106f765dad0015f840ff,5f1b026ff9f4e82811599350,5f1eebbd4ebbc005b2d130a3,,400,-300,0,75,3.5,0,[],[],250.5,-245,33.5,4320,1,0,1,0,1,0,48,0,48,0,1,47,,,,,,,,,,,,,,,,,,,,,,,,,,,,,,
,,,,,,,,,,,,,,,,,,,,5c93106f765dad0015f840ff,20,Male,2020-07-27_17h59.41.296,AvatarAutomaticProl,3.2.2,Win32,60,5c93106f765dad0015f840ff,5f1b026ff9f4e82811599350,5f1eebbd4ebbc005b2d130a3,,400,-300,0,63,3.5,0,[],[],350.7,-3.5,26.5,4307,1,0,1,0,1,0,48,0,48,0,1,47,,,,,,,,,,,,,,,,,,,,,,,,,,,,,,
,,,,,,,,,,,,,,,,,,,,5c93106f765dad0015f840ff,20,Male,2020-07-27_17h59.41.296,AvatarAutomaticProl,3.2.2,Win32,60,5c93106f765dad0015f840ff,5f1b026ff9f4e82811599350,5f1eebbd4ebbc005b2d130a3,,500,-400,0,136,3.5,0,[],[],450.9,-245,19.5,5299,1,0,1,0,1,0,48,0,48,0,1,47,,,,,,,,,,,,,,,,,,,,,,,,,,,,,,
,,,,,,,,,,,,,,,,,,,,5c93106f765dad0015f840ff,20,Male,2020-07-27_17h59.41.296,AvatarAutomaticProl,3.2.2,Win32,60,5c93106f765dad0015f840ff,5f1b026ff9f4e82811599350,5f1eebbd4ebbc005b2d130a3,,400,300,0,144,3.5,0,[],[],217.1,241.5,-19,6054,1,0,1,0,1,0,48,0,48,0,1,47,,,,,,,,,,,,,,,,,,,,,,,,,,,,,,
,,,,,,,,,,,,,,,,,,,,5c93106f765dad0015f840ff,20,Male,2020-07-27_17h59.41.296,AvatarAutomaticProl,3.2.2,Win32,60,5c93106f765dad0015f840ff,5f1b026ff9f4e82811599350,5f1eebbd4ebbc005b2d130a3,,300,-200,0,116,3.5,1,[],[],350.7,-157.5,-8.5,4931,1,0,1,0,1,0,48,0,48,0,1,47,,,,,,,,,,,,,,,,,,,,,,,,,,,,,,
,,,,,,,,,,,,,,,,,,,,5c93106f765dad0015f840ff,20,Male,2020-07-27_17h59.41.296,AvatarAutomaticProl,3.2.2,Win32,60,5c93106f765dad0015f840ff,5f1b026ff9f4e82811599350,5f1eebbd4ebbc005b2d130a3,,500,400,0,93,3.5,0,[],[],267.2,269.5,9,5000,1,0,1,0,1,0,48,0,48,0,1,47,,,,,,,,,,,,,,,,,,,,,,,,,,,,,,
,,,,,,,,,,,,,,,,,,,,5c93106f765dad0015f840ff,20,Male,2020-07-27_17h59.41.296,AvatarAutomaticProl,3.2.2,Win32,60,5c93106f765dad0015f840ff,5f1b026ff9f4e82811599350,5f1eebbd4ebbc005b2d130a3,,200,-100,0,110,3.5,1,[],[],517.7,-56,-8.5,5202,1,0,1,0,1,0,48,0,48,0,1,47,,,,,,,,,,,,,,,,,,,,,,,,,,,,,,
,,,,,,,,,,,,,,,,,,,,5c93106f765dad0015f840ff,20,Male,2020-07-27_17h59.41.296,AvatarAutomaticProl,3.2.2,Win32,60,5c93106f765dad0015f840ff,5f1b026ff9f4e82811599350,5f1eebbd4ebbc005b2d130a3,,500,-400,0,77,3.5,0,[],[],167,-287,9,4599,1,0,1,0,1,0,48,0,48,0,1,47,,,,,,,,,,,,,,,,,,,,,,,,,,,,,,
,,,,,,,,,,,,,,,,,,,,5c93106f765dad0015f840ff,20,Male,2020-07-27_17h59.41.296,AvatarAutomaticProl,3.2.2,Win32,60,5c93106f765dad0015f840ff,5f1b026ff9f4e82811599350,5f1eebbd4ebbc005b2d130a3,,400,-300,0,90,3.5,0,[],[],350.7,-248.5,2,4930,1,0,1,0,1,0,48,0,48,0,1,47,,,,,,,,,,,,,,,,,,,,,,,,,,,,,,
,,,,,,,,,,,,,,,,,,,,5c93106f765dad0015f840ff,20,Male,2020-07-27_17h59.41.296,AvatarAutomaticProl,3.2.2,Win32,60,5c93106f765dad0015f840ff,5f1b026ff9f4e82811599350,5f1eebbd4ebbc005b2d130a3,,400,300,0,73,3.5,0,[],[],317.3,231,-19,4382,1,0,1,0,1,0,48,0,48,0,1,47,,,,,,,,,,,,,,,,,,,,,,,,,,,,,,
,,,,,,,,,,,,,,,,,,,,5c93106f765dad0015f840ff,20,Male,2020-07-27_17h59.41.296,AvatarAutomaticProl,3.2.2,Win32,60,5c93106f765dad0015f840ff,5f1b026ff9f4e82811599350,5f1eebbd4ebbc005b2d130a3,,500,-400,0,73,3.5,0,[],[],400.8,-213.5,-5,5667,1,0,1,0,1,0,48,0,48,0,1,47,,,,,,,,,,,,,,,,,,,,,,,,,,,,,,
,,,,,,,,,,,,,,,,,,,,5c93106f765dad0015f840ff,20,Male,2020-07-27_17h59.41.296,AvatarAutomaticProl,3.2.2,Win32,60,5c93106f765dad0015f840ff,5f1b026ff9f4e82811599350,5f1eebbd4ebbc005b2d130a3,,300,-200,0,112,3.5,1,[],[],283.9,-157.5,5.5,5834,1,0,1,0,1,0,48,0,48,0,1,47,,,,,,,,,,,,,,,,,,,,,,,,,,,,,,
,,,,,,,,,,,,,,,,,,,,5c93106f765dad0015f840ff,20,Male,2020-07-27_17h59.41.296,AvatarAutomaticProl,3.2.2,Win32,60,5c93106f765dad0015f840ff,5f1b026ff9f4e82811599350,5f1eebbd4ebbc005b2d130a3,,200,-100,0,82,3.5,1,[],[],300.6,-59.5,19.5,3819,1,0,1,0,1,0,48,0,48,0,1,47,,,,,,,,,,,,,,,,,,,,,,,,,,,,,,
,,,,,,,,,,,,,,,,,,,,5c93106f765dad0015f840ff,20,Male,2020-07-27_17h59.41.296,AvatarAutomaticProl,3.2.2,Win32,60,5c93106f765dad0015f840ff,5f1b026ff9f4e82811599350,5f1eebbd4ebbc005b2d130a3,,400,300,0,129,3.5,1,[],[],250.5,262.5,19.5,5382,1,0,1,0,1,0,48,0,48,0,1,47,,,,,,,,,,,,,,,,,,,,,,,,,,,,,,
,,,,,,,,,,,,,,,,,,,,5c93106f765dad0015f840ff,20,Male,2020-07-27_17h59.41.296,AvatarAutomaticProl,3.2.2,Win32,60,5c93106f765dad0015f840ff,5f1b026ff9f4e82811599350,5f1eebbd4ebbc005b2d130a3,,500,-400,0,62,3.5,0,[],[],267.2,-234.5,-15.5,4721,1,0,1,0,1,0,48,0,48,0,1,47,,,,,,,,,,,,,,,,,,,,,,,,,,,,,,
,,,,,,,,,,,,,,,,,,,,5c93106f765dad0015f840ff,20,Male,2020-07-27_17h59.41.296,AvatarAutomaticProl,3.2.2,Win32,60,5c93106f765dad0015f840ff,5f1b026ff9f4e82811599350,5f1eebbd4ebbc005b2d130a3,,,,,,,,,,,,,32024,1,0,1,0,1,0,,,,,,,500,400,0,const,3.5,102,right,-39,-30,[],[],283.9,174.5,2,0,40,0,40,0,1,39,,,,,,,,,
,,,,,,,,,,,,,,,,,,,,5c93106f765dad0015f840ff,20,Male,2020-07-27_17h59.41.296,AvatarAutomaticProl,3.2.2,Win32,60,5c93106f765dad0015f840ff,5f1b026ff9f4e82811599350,5f1eebbd4ebbc005b2d130a3,,,,,,,,,,,,,79867,1,0,1,0,1,0,,,,,,,200,100,0,const,3.5,105,right,-100,13,[],[],467.6,12,-19,0,40,0,40,0,1,39,,,,,,,,,
,,,,,,,,,,,,,,,,,,,,5c93106f765dad0015f840ff,20,Male,2020-07-27_17h59.41.296,AvatarAutomaticProl,3.2.2,Win32,60,5c93106f765dad0015f840ff,5f1b026ff9f4e82811599350,5f1eebbd4ebbc005b2d130a3,,,,,,,,,,,,,5797,1,0,1,0,1,0,,,,,,,200,100,0,const,3.5,85,right,-7,5,[],[],334,59.5,16,1,40,0,40,0,1,39,,,,,,,,,
,,,,,,,,,,,,,,,,,,,,5c93106f765dad0015f840ff,20,Male,2020-07-27_17h59.41.296,AvatarAutomaticProl,3.2.2,Win32,60,5c93106f765dad0015f840ff,5f1b026ff9f4e82811599350,5f1eebbd4ebbc005b2d130a3,,,,,,,,,,,,,7328,1,0,1,0,1,0,,,,,,,500,400,0,const,3.5,74,left,0,-146,[],[],367.4,-192.5,12.5,0,40,0,40,0,1,39,,,,,,,,,
,,,,,,,,,,,,,,,,,,,,5c93106f765dad0015f840ff,20,Male,2020-07-27_17h59.41.296,AvatarAutomaticProl,3.2.2,Win32,60,5c93106f765dad0015f840ff,5f1b026ff9f4e82811599350,5f1eebbd4ebbc005b2d130a3,,,,,,,,,,,,,6487,1,0,1,0,1,0,,,,,,,200,100,0,const,3.5,139,left,-14,-30,[],[],283.9,-56,9,1,40,0,40,0,1,39,,,,,,,,,
,,,,,,,,,,,,,,,,,,,,5c93106f765dad0015f840ff,20,Male,2020-07-27_17h59.41.296,AvatarAutomaticProl,3.2.2,Win32,60,5c93106f765dad0015f840ff,5f1b026ff9f4e82811599350,5f1eebbd4ebbc005b2d130a3,,,,,,,,,,,,,7140,1,0,1,0,1,0,,,,,,,300,200,0,const,3.5,149,right,-1,68,[],[],250.5,156.5,-1.5,1,40,0,40,0,1,39,,,,,,,,,
,,,,,,,,,,,,,,,,,,,,5c93106f765dad0015f840ff,20,Male,2020-07-27_17h59.41.296,AvatarAutomaticProl,3.2.2,Win32,60,5c93106f765dad0015f840ff,5f1b026ff9f4e82811599350,5f1eebbd4ebbc005b2d130a3,,,,,,,,,,,,,8145,1,0,1,0,1,0,,,,,,,500,400,0,const,3.5,139,right,-280,17,[],[],267.2,-52.5,5.5,0,40,0,40,0,1,39,,,,,,,,,
,,,,,,,,,,,,,,,,,,,,5c93106f765dad0015f840ff,20,Male,2020-07-27_17h59.41.296,AvatarAutomaticProl,3.2.2,Win32,60,5c93106f765dad0015f840ff,5f1b026ff9f4e82811599350,5f1eebbd4ebbc005b2d130a3,,,,,,,,,,,,,7722,1,0,1,0,1,0,,,,,,,400,300,0,const,3.5,138,left,113,12,[],[],200.4,-135.5,5.5,0,40,0,40,0,1,39,,,,,,,,,
,,,,,,,,,,,,,,,,,,,,5c93106f765dad0015f840ff,20,Male,2020-07-27_17h59.41.296,AvatarAutomaticProl,3.2.2,Win32,60,5c93106f765dad0015f840ff,5f1b026ff9f4e82811599350,5f1eebbd4ebbc005b2d130a3,,,,,,,,,,,,,6928,1,0,1,0,1,0,,,,,,,500,400,0,const,3.5,134,right,265,157,[],[],183.7,356,9,1,40,0,40,0,1,39,,,,,,,,,
,,,,,,,,,,,,,,,,,,,,5c93106f765dad0015f840ff,20,Male,2020-07-27_17h59.41.296,AvatarAutomaticProl,3.2.2,Win32,60,5c93106f765dad0015f840ff,5f1b026ff9f4e82811599350,5f1eebbd4ebbc005b2d130a3,,,,,,,,,,,,,7344,1,0,1,0,1,0,,,,,,,500,400,0,const,3.5,139,right,-325,163,[],[],250.5,-80,5.5,0,40,0,40,0,1,39,,,,,,,,,
,,,,,,,,,,,,,,,,,,,,5c93106f765dad0015f840ff,20,Male,2020-07-27_17h59.41.296,AvatarAutomaticProl,3.2.2,Win32,60,5c93106f765dad0015f840ff,5f1b026ff9f4e82811599350,5f1eebbd4ebbc005b2d130a3,,,,,,,,,,,,,7165,1,0,1,0,1,0,,,,,,,300,200,0,const,3.5,100,right,-6,12,[],[],300.6,158.5,-12,1,40,0,40,0,1,39,,,,,,,,,
,,,,,,,,,,,,,,,,,,,,5c93106f765dad0015f840ff,20,Male,2020-07-27_17h59.41.296,AvatarAutomaticProl,3.2.2,Win32,60,5c93106f765dad0015f840ff,5f1b026ff9f4e82811599350,5f1eebbd4ebbc005b2d130a3,,,,,,,,,,,,,5751,1,0,1,0,1,0,,,,,,,300,200,0,const,3.5,72,left,-9,78,[],[],300.6,-156,-5,1,40,0,40,0,1,39,,,,,,,,,
,,,,,,,,,,,,,,,,,,,,5c93106f765dad0015f840ff,20,Male,2020-07-27_17h59.41.296,AvatarAutomaticProl,3.2.2,Win32,60,5c93106f765dad0015f840ff,5f1b026ff9f4e82811599350,5f1eebbd4ebbc005b2d130a3,,,,,,,,,,,,,6092,1,0,1,0,1,0,,,,,,,200,100,0,const,3.5,90,right,-5,21,[],[],250.5,-5,16,0,40,0,40,0,1,39,,,,,,,,,
,,,,,,,,,,,,,,,,,,,,5c93106f765dad0015f840ff,20,Male,2020-07-27_17h59.41.296,AvatarAutomaticProl,3.2.2,Win32,60,5c93106f765dad0015f840ff,5f1b026ff9f4e82811599350,5f1eebbd4ebbc005b2d130a3,,,,,,,,,,,,,6561,1,0,1,0,1,0,,,,,,,400,300,0,const,3.5,104,left,-12,36,[],[],200.4,-257,9,1,40,0,40,0,1,39,,,,,,,,,
,,,,,,,,,,,,,,,,,,,,5c93106f765dad0015f840ff,20,Male,2020-07-27_17h59.41.296,AvatarAutomaticProl,3.2.2,Win32,60,5c93106f765dad0015f840ff,5f1b026ff9f4e82811599350,5f1eebbd4ebbc005b2d130a3,,,,,,,,,,,,,5870,1,0,1,0,1,0,,,,,,,500,400,0,const,3.5,71,right,-181,-126,[],[],250.5,74.5,2,0,40,0,40,0,1,39,,,,,,,,,
,,,,,,,,,,,,,,,,,,,,5c93106f765dad0015f840ff,20,Male,2020-07-27_17h59.41.296,AvatarAutomaticProl,3.2.2,Win32,60,5c93106f765dad0015f840ff,5f1b026ff9f4e82811599350,5f1eebbd4ebbc005b2d130a3,,,,,,,,,,,,,5830,1,0,1,0,1,0,,,,,,,300,200,0,const,3.5,76,right,9,29,[],[],183.7,159.5,16,1,40,0,40,0,1,39,,,,,,,,,
,,,,,,,,,,,,,,,,,,,,5c93106f765dad0015f840ff,20,Male,2020-07-27_17h59.41.296,AvatarAutomaticProl,3.2.2,Win32,60,5c93106f765dad0015f840ff,5f1b026ff9f4e82811599350,5f1eebbd4ebbc005b2d130a3,,,,,,,,,,,,,6263,1,0,1,0,1,0,,,,,,,200,100,0,const,3.5,76,right,-4,-1,[],[],384.1,62.5,-22.5,1,40,0,40,0,1,39,,,,,,,,,
,,,,,,,,,,,,,,,,,,,,5c93106f765dad0015f840ff,20,Male,2020-07-27_17h59.41.296,AvatarAutomaticProl,3.2.2,Win32,60,5c93106f765dad0015f840ff,5f1b026ff9f4e82811599350,5f1eebbd4ebbc005b2d130a3,,,,,,,,,,,,,6000,1,0,1,0,1,0,,,,,,,500,400,0,const,3.5,91,left,-213,-97,[],[],300.6,-356.5,5.5,1,40,0,40,0,1,39,,,,,,,,,
,,,,,,,,,,,,,,,,,,,,5c93106f765dad0015f840ff,20,Male,2020-07-27_17h59.41.296,AvatarAutomaticProl,3.2.2,Win32,60,5c93106f765dad0015f840ff,5f1b026ff9f4e82811599350,5f1eebbd4ebbc005b2d130a3,,,,,,,,,,,,,5263,1,0,1,0,1,0,,,,,,,300,200,0,const,3.5,75,right,-15,55,[],[],300.6,156.5,5.5,1,40,0,40,0,1,39,,,,,,,,,
,,,,,,,,,,,,,,,,,,,,5c93106f765dad0015f840ff,20,Male,2020-07-27_17h59.41.296,AvatarAutomaticProl,3.2.2,Win32,60,5c93106f765dad0015f840ff,5f1b026ff9f4e82811599350,5f1eebbd4ebbc005b2d130a3,,,,,,,,,,,,,5336,1,0,1,0,1,0,,,,,,,400,300,0,const,3.5,66,right,-151,-25,[],[],384.1,87,19.5,0,40,0,40,0,1,39,,,,,,,,,
,,,,,,,,,,,,,,,,,,,,5c93106f765dad0015f840ff,20,Male,2020-07-27_17h59.41.296,AvatarAutomaticProl,3.2.2,Win32,60,5c93106f765dad0015f840ff,5f1b026ff9f4e82811599350,5f1eebbd4ebbc005b2d130a3,,,,,,,,,,,,,5433,1,0,1,0,1,0,,,,,,,200,100,0,const,3.5,125,left,-9,5,[],[],350.7,-58,-1.5,1,40,0,40,0,1,39,,,,,,,,,
,,,,,,,,,,,,,,,,,,,,5c93106f765dad0015f840ff,20,Male,2020-07-27_17h59.41.296,AvatarAutomaticProl,3.2.2,Win32,60,5c93106f765dad0015f840ff,5f1b026ff9f4e82811599350,5f1eebbd4ebbc005b2d130a3,,,,,,,,,,,,,4728,1,0,1,0,1,0,,,,,,,300,200,0,const,3.5,61,left,0,-59,[],[],217.1,-157.5,5.5,1,40,0,40,0,1,39,,,,,,,,,
,,,,,,,,,,,,,,,,,,,,5c93106f765dad0015f840ff,20,Male,2020-07-27_17h59.41.296,AvatarAutomaticProl,3.2.2,Win32,60,5c93106f765dad0015f840ff,5f1b026ff9f4e82811599350,5f1eebbd4ebbc005b2d130a3,,,,,,,,,,,,,5903,1,0,1,0,1,0,,,,,,,500,400,0,const,3.5,94,left,194,38,[],[],300.6,-26.5,12.5,0,40,0,40,0,1,39,,,,,,,,,
,,,,,,,,,,,,,,,,,,,,5c93106f765dad0015f840ff,20,Male,2020-07-27_17h59.41.296,AvatarAutomaticProl,3.2.2,Win32,60,5c93106f765dad0015f840ff,5f1b026ff9f4e82811599350,5f1eebbd4ebbc005b2d130a3,,,,,,,,,,,,,6547,1,0,1,0,1,0,,,,,,,300,200,0,const,3.5,148,left,-16,96,[],[],384.1,-156,9,1,40,0,40,0,1,39,,,,,,,,,
,,,,,,,,,,,,,,,,,,,,5c93106f765dad0015f840ff,20,Male,2020-07-27_17h59.41.296,AvatarAutomaticProl,3.2.2,Win32,60,5c93106f765dad0015f840ff,5f1b026ff9f4e82811599350,5f1eebbd4ebbc005b2d130a3,,,,,,,,,,,,,6783,1,0,1,0,1,0,,,,,,,400,300,0,const,3.5,138,left,8,100,[],[],317.3,-216,-1.5,0,40,0,40,0,1,39,,,,,,,,,
,,,,,,,,,,,,,,,,,,,,5c93106f765dad0015f840ff,20,Male,2020-07-27_17h59.41.296,AvatarAutomaticProl,3.2.2,Win32,60,5c93106f765dad0015f840ff,5f1b026ff9f4e82811599350,5f1eebbd4ebbc005b2d130a3,,,,,,,,,,,,,7689,1,0,1,0,1,0,,,,,,,300,200,0,const,3.5,105,left,-2,4,[],[],250.5,-159.5,12.5,1,40,0,40,0,1,39,,,,,,,,,
,,,,,,,,,,,,,,,,,,,,5c93106f765dad0015f840ff,20,Male,2020-07-27_17h59.41.296,AvatarAutomaticProl,3.2.2,Win32,60,5c93106f765dad0015f840ff,5f1b026ff9f4e82811599350,5f1eebbd4ebbc005b2d130a3,,,,,,,,,,,,,7183,1,0,1,0,1,0,,,,,,,500,400,0,const,3.5,136,left,217,133,[],[],233.8,-77,30,0,40,0,40,0,1,39,,,,,,,,,
,,,,,,,,,,,,,,,,,,,,5c93106f765dad0015f840ff,20,Male,2020-07-27_17h59.41.296,AvatarAutomaticProl,3.2.2,Win32,60,5c93106f765dad0015f840ff,5f1b026ff9f4e82811599350,5f1eebbd4ebbc005b2d130a3,,,,,,,,,,,,,5056,1,0,1,0,1,0,,,,,,,200,100,0,const,3.5,112,right,-11,36,[],[],317.3,59,9,1,40,0,40,0,1,39,,,,,,,,,
,,,,,,,,,,,,,,,,,,,,5c93106f765dad0015f840ff,20,Male,2020-07-27_17h59.41.296,AvatarAutomaticProl,3.2.2,Win32,60,5c93106f765dad0015f840ff,5f1b026ff9f4e82811599350,5f1eebbd4ebbc005b2d130a3,,,,,,,,,,,,,5305,1,0,1,0,1,0,,,,,,,300,200,0,const,3.5,100,right,-4,42,[],[],434.2,157,2,1,40,0,40,0,1,39,,,,,,,,,
,,,,,,,,,,,,,,,,,,,,5c93106f765dad0015f840ff,20,Male,2020-07-27_17h59.41.296,AvatarAutomaticProl,3.2.2,Win32,60,5c93106f765dad0015f840ff,5f1b026ff9f4e82811599350,5f1eebbd4ebbc005b2d130a3,,,,,,,,,,,,,5943,1,0,1,0,1,0,,,,,,,400,300,0,const,3.5,128,left,-6,30,[],[],250.5,-244,-15.5,0,40,0,40,0,1,39,,,,,,,,,
,,,,,,,,,,,,,,,,,,,,5c93106f765dad0015f840ff,20,Male,2020-07-27_17h59.41.296,AvatarAutomaticProl,3.2.2,Win32,60,5c93106f765dad0015f840ff,5f1b026ff9f4e82811599350,5f1eebbd4ebbc005b2d130a3,,,,,,,,,,,,,5354,1,0,1,0,1,0,,,,,,,300,200,0,const,3.5,113,left,-10,51,[],[],384.1,-160.5,19.5,1,40,0,40,0,1,39,,,,,,,,,
,,,,,,,,,,,,,,,,,,,,5c93106f765dad0015f840ff,20,Male,2020-07-27_17h59.41.296,AvatarAutomaticProl,3.2.2,Win32,60,5c93106f765dad0015f840ff,5f1b026ff9f4e82811599350,5f1eebbd4ebbc005b2d130a3,,,,,,,,,,,,,5333,1,0,1,0,1,0,,,,,,,200,100,0,const,3.5,91,left,4,1,[],[],384.1,-59,12.5,1,40,0,40,0,1,39,,,,,,,,,
,,,,,,,,,,,,,,,,,,,,5c93106f765dad0015f840ff,20,Male,2020-07-27_17h59.41.296,AvatarAutomaticProl,3.2.2,Win32,60,5c93106f765dad0015f840ff,5f1b026ff9f4e82811599350,5f1eebbd4ebbc005b2d130a3,,,,,,,,,,,,,6631,1,0,1,0,1,0,,,,,,,400,300,0,const,3.5,144,right,-18,-80,[],[],434.2,174.5,5.5,0,40,0,40,0,1,39,,,,,,,,,
,,,,,,,,,,,,,,,,,,,,5c93106f765dad0015f840ff,20,Male,2020-07-27_17h59.41.296,AvatarAutomaticProl,3.2.2,Win32,60,5c93106f765dad0015f840ff,5f1b026ff9f4e82811599350,5f1eebbd4ebbc005b2d130a3,,,,,,,,,,,,,6286,1,0,1,0,1,0,,,,,,,400,300,0,const,3.5,127,left,46,141,[],[],317.3,-202.5,23,0,40,0,40,0,1,39,,,,,,,,,
,,,,,,,,,,,,,,,,,,,,5c93106f765dad0015f840ff,20,Male,2020-07-27_17h59.41.296,AvatarAutomaticProl,3.2.2,Win32,60,5c93106f765dad0015f840ff,5f1b026ff9f4e82811599350,5f1eebbd4ebbc005b2d130a3,,,,,,,,,,,,,6212,1,0,1,0,1,0,,,,,,,400,300,0,const,3.5,138,right,-77,-75,[],[],384.1,150.5,9,0,40,0,40,0,1,39,,,,,,,,,
,,,,,,,,,,,,,,,,,,,,5c93106f765dad0015f840ff,20,Male,2020-07-27_17h59.41.296,AvatarAutomaticProl,3.2.2,Win32,60,5c93106f765dad0015f840ff,5f1b026ff9f4e82811599350,5f1eebbd4ebbc005b2d130a3,,,,,,,,,,,,,4499,1,0,1,0,1,0,,,,,,,200,100,0,const,3.5,76,right,-1,17,[],[],300.6,58.5,-12,1,40,0,40,0,1,39,,,,,,,,,
,,,,,,,,,,,,,,,,,,,,5c93106f765dad0015f840ff,20,Male,2020-07-27_17h59.41.296,AvatarAutomaticProl,3.2.2,Win32,60,5c93106f765dad0015f840ff,5f1b026ff9f4e82811599350,5f1eebbd4ebbc005b2d130a3,,,,,,,,,,,,,5882,1,0,1,0,1,0,,,,,,,400,300,0,const,3.5,140,left,-117,49,[],[],417.5,-257,2,1,40,0,40,0,1,39,,,,,,,,,
,,,,,,,,,,,,,,,,,,,,5c93106f765dad0015f840ff,20,Male,2020-07-27_17h59.41.296,AvatarAutomaticProl,3.2.2,Win32,60,5c93106f765dad0015f840ff,5f1b026ff9f4e82811599350,5f1eebbd4ebbc005b2d130a3,,,,,,,,,,,,,6381,1,0,1,0,1,0,,,,,,,500,400,0,const,3.5,98,left,237,-174,[],[],334,37.5,-1.5,0,40,0,40,0,1,39,,,,,,,,,
,,,,,,,,,,,,,,,,,,,,5c93106f765dad0015f840ff,20,Male,2020-07-27_17h59.41.296,AvatarAutomaticProl,3.2.2,Win32,60,5c93106f765dad0015f840ff,5f1b026ff9f4e82811599350,5f1eebbd4ebbc005b2d130a3,,,,,,,,,,,,,5737,1,0,1,0,1,0,,,,,,,200,100,0,const,3.5,99,right,-6,32,[],[],567.8,60.5,19.5,1,40,0,40,0,1,39,,,,,,,,,
,,,,,,,,,,,,,,,,,,,,5c93106f765dad0015f840ff,20,Male,2020-07-27_17h59.41.296,AvatarAutomaticProl,3.2.2,Win32,60,5c93106f765dad0015f840ff,5f1b026ff9f4e82811599350,5f1eebbd4ebbc005b2d130a3,,,,,,,,,,,,,5449,1,0,1,0,1,0,,,,,,,400,300,0,const,3.5,95,left,12,118,[],[],517.7,-145.5,9,0,40,0,40,0,1,39,,,,,,,,,
,,,,,,,,,,,,,,,,,,,,5c93106f765dad0015f840ff,20,Male,2020-07-27_17h59.41.296,AvatarAutomaticProl,3.2.2,Win32,60,5c93106f765dad0015f840ff,5f1b026ff9f4e82811599350,5f1eebbd4ebbc005b2d130a3,,,,,,,,,,,,,10435,1,0,1,0,1,0,,,,,,,,,,,,,,,,,,,,,,,,,,,,400,0.093333333,8,0,8,0,1,7,
,,,,,,,,,,,,,,,,,,,,5c93106f765dad0015f840ff,20,Male,2020-07-27_17h59.41.296,AvatarAutomaticProl,3.2.2,Win32,60,5c93106f765dad0015f840ff,5f1b026ff9f4e82811599350,5f1eebbd4ebbc005b2d130a3,,,,,,,,,,,,,5463,1,0,1,0,1,0,,,,,,,,,,,,,,,,,,,,,,,,,,,,500,0.46,8,0,8,0,1,7,
,,,,,,,,,,,,,,,,,,,,5c93106f765dad0015f840ff,20,Male,2020-07-27_17h59.41.296,AvatarAutomaticProl,3.2.2,Win32,60,5c93106f765dad0015f840ff,5f1b026ff9f4e82811599350,5f1eebbd4ebbc005b2d130a3,,,,,,,,,,,,,1784,1,0,1,0,1,0,,,,,,,,,,,,,,,,,,,,,,,,,,,,200,-0.906666667,8,0,8,0,1,7,
,,,,,,,,,,,,,,,,,,,,5c93106f765dad0015f840ff,20,Male,2020-07-27_17h59.41.296,AvatarAutomaticProl,3.2.2,Win32,60,5c93106f765dad0015f840ff,5f1b026ff9f4e82811599350,5f1eebbd4ebbc005b2d130a3,,,,,,,,,,,,,3131,1,0,1,0,1,0,,,,,,,,,,,,,,,,,,,,,,,,,,,,400,0.213333333,8,0,8,0,1,7,
,,,,,,,,,,,,,,,,,,,,5c93106f765dad0015f840ff,20,Male,2020-07-27_17h59.41.296,AvatarAutomaticProl,3.2.2,Win32,60,5c93106f765dad0015f840ff,5f1b026ff9f4e82811599350,5f1eebbd4ebbc005b2d130a3,,,,,,,,,,,,,3214,1,0,1,0,1,0,,,,,,,,,,,,,,,,,,,,,,,,,,,,500,0.693333333,8,0,8,0,1,7,
,,,,,,,,,,,,,,,,,,,,5c93106f765dad0015f840ff,20,Male,2020-07-27_17h59.41.296,AvatarAutomaticProl,3.2.2,Win32,60,5c93106f765dad0015f840ff,5f1b026ff9f4e82811599350,5f1eebbd4ebbc005b2d130a3,,,,,,,,,,,,,1715,1,0,1,0,1,0,,,,,,,,,,,,,,,,,,,,,,,,,,,,200,-0.993333333,8,0,8,0,1,7,
,,,,,,,,,,,,,,,,,,,,5c93106f765dad0015f840ff,20,Male,2020-07-27_17h59.41.296,AvatarAutomaticProl,3.2.2,Win32,60,5c93106f765dad0015f840ff,5f1b026ff9f4e82811599350,5f1eebbd4ebbc005b2d130a3,,,,,,,,,,,,,6736,1,0,1,0,1,0,,,,,,,,,,,,,,,,,,,,,,,,,,,,300,-0.98,8,0,8,0,1,7,
,,,,,,,,,,,,,,,,,,,,5c93106f765dad0015f840ff,20,Male,2020-07-27_17h59.41.296,AvatarAutomaticProl,3.2.2,Win32,60,5c93106f765dad0015f840ff,5f1b026ff9f4e82811599350,5f1eebbd4ebbc005b2d130a3,,,,,,,,,,,,,1263,1,0,1,0,1,0,,,,,,,,,,,,,,,,,,,,,,,,,,,,300,-0.993333333,8,0,8,0,1,7,
,,,,,,,,,,,,,,,,,,,,5c93106f765dad0015f840ff,20,Male,2020-07-27_17h59.41.296,AvatarAutomaticProl,3.2.2,Win32,60,5c93106f765dad0015f840ff,5f1b026ff9f4e82811599350,5f1eebbd4ebbc005b2d130a3,,,,,,,,,,,,,,,,,,,,,,,,,,,,,,,,,,,,,,,,,,,,,,,,,,,,,,,968751
