Browser,true_x_res,true_y_res,x_adjustment,y_adjustment,Params_TravelTime,Params_yOffset,Params_Reach,Params_ScreenWidth,Params_ScreenHeight,Params_Hz,Params_HzScale,Params_conf_linewidth,params_consent,ConsentLoop.thisRepN,ConsentLoop.thisTrialN,ConsentLoop.thisN,ConsentLoop.thisIndex,ConsentLoop.ran,ConsentLoop.order,participant,Age,Gender,date,expName,psychopyVersion,OS,frameRate,PROLIFIC_PID,STUDY_ID,SESSION_ID,Demo_speedCond,Demo_delta,Demo_xposTarget,Demo_yposTarget,Demo_Delay,Demo_AvSpeed,Demo_Success,Demo_motion,Demo_Click,Demo_RTms,Demo_finalX,Demo_finalY,Trial_duration,BlockLoop.thisRepN,BlockLoop.thisTrialN,BlockLoop.thisN,BlockLoop.thisIndex,BlockLoop.ran,BlockLoop.order,DemoLoop.thisRepN,DemoLoop.thisTrialN,DemoLoop.thisN,DemoLoop.thisIndex,DemoLoop.ran,DemoLoop.order,Decision_Delta,Decision_xposTarget,Decision_yposTarget,Decision_SpeedCond,Decision_AvSpeed,Decision_delay,Decision_targetSide,Decision_placement,Decision_initplace,Decision_Driving,Decision_Click,Decision_RTms,Decision_finalX,Decision_finalY,Decision_success,DecisionTrialLoop.thisRepN,DecisionTrialLoop.thisTrialN,DecisionTrialLoop.thisN,DecisionTrialLoop.thisIndex,DecisionTrialLoop.ran,DecisionTrialLoop.order,Confidence_Delta,Confidence_resp,ConfidenceLoop.thisRepN,ConfidenceLoop.thisTrialN,ConfidenceLoop.thisN,ConfidenceLoop.thisIndex,ConfidenceLoop.ran,ConfidenceLoop.order,exp_duration
Chrome,1920,969,1,1,120,100,45,1200,600,60,1,300,Agreed,3,0,3,0,1,2,5e9ab5df2893af141343bce7please enter your prolific ID here,29,male,2020-07-27_17h02.21.411,AvatarAutomaticProl,3.2.2,Win32,60,5e9ab5df2893af141343bce7,5f1b026ff9f4e82811599350,5f1eebb043cfbc032404b0e0,,,,,,,,,,,,,,,,,,,,,,,,,,,,,,,,,,,,,,,,,,,,,,,,,,,,,,,
,,,,,,,,,,,,,Agreed,3,0,3,0,1,2,5e9ab5df2893af141343bce7please enter your prolific ID here,29,male,2020-07-27_17h02.21.411,AvatarAutomaticProl,3.2.2,Win32,60,5e9ab5df2893af141343bce7,5f1b026ff9f4e82811599350,5f1eebb043cfbc032404b0e0,,,,,,,,,,,,,,,,,,,,,,,,,,,,,,,,,,,,,,,,,,,,,,,,,,,,,,,
,,,,,,,,,,,,,Agreed,3,0,3,0,1,2,5e9ab5df2893af141343bce7please enter your prolific ID here,29,male,2020-07-27_17h02.21.411,AvatarAutomaticProl,3.2.2,Win32,60,5e9ab5df2893af141343bce7,5f1b026ff9f4e82811599350,5f1eebb043cfbc032404b0e0,,,,,,,,,,,,,,,,,,,,,,,,,,,,,,,,,,,,,,,,,,,,,,,,,,,,,,,
,,,,,,,,,,,,,,,,,,,,5e9ab5df2893af141343bce7please enter your prolific ID here,29,male,2020-07-27_17h02.21.411,AvatarAutomaticProl,3.2.2,Win32,60,5e9ab5df2893af141343bce7,5f1b026ff9f4e82811599350,5f1eebb043cfbc032404b0e0,const,300,-200,0,143,3.5,1,[],[],300.6,-157.5,-1.5,9531,1,0,1,0,1,0,48,0,48,0,1,47,,,,,,,,,,,,,,,,,,,,,,,,,,,,,,
,,,,,,,,,,,,,,,,,,,,5e9ab5df2893af141343bce7please enter your prolific ID here,29,male,2020-07-27_17h02.21.411,AvatarAutomaticProl,3.2.2,Win32,60,5e9ab5df2893af141343bce7,5f1b026ff9f4e82811599350,5f1eebb043cfbc032404b0e0,,500,400,0,146,3.5,0,[],[],200.4,276.5,5.5,54153,1,0,1,0,1,0,48,0,48,0,1,47,,,,,,,,,,,,,,,,,,,,,,,,,,,,,,
,,,,,,,,,,,,,,,,,,,,5e9ab5df2893af141343bce7please enter your prolific ID here,29,male,2020-07-27_17h02.21.411,AvatarAutomaticProl,3.2.2,Win32,60,5e9ab5df2893af141343bce7,5f1b026ff9f4e82811599350,5f1eebb043cfbc032404b0e0,,500,-400,0,141,3.5,0,[],[],300.6,-255.5,2,5758,1,0,1,0,1,0,48,0,48,0,1,47,,,,,,,,,,,,,,,,,,,,,,,,,,,,,,
,,,,,,,,,,,,,,,,,,,,5e9ab5df2893af141343bce7please enter your prolific ID here,29,male,2020-07-27_17h02.21.411,AvatarAutomaticProl,3.2.2,Win32,60,5e9ab5df2893af141343bce7,5f1b026ff9f4e82811599350,5f1eebb043cfbc032404b0e0,,400,300,0,99,3.5,0,[],[],334,248.5,2,15743,1,0,1,0,1,0,48,0,48,0,1,47,,,,,,,,,,,,,,,,,,,,,,,,,,,,,,
,,,,,,,,,,,,,,,,,,,,5e9ab5df2893af141343bce7please enter your prolific ID here,29,male,2020-07-27_17h02.21.411,AvatarAutomaticProl,3.2.2,Win32,60,5e9ab5df2893af141343bce7,5f1b026ff9f4e82811599350,5f1eebb043cfbc032404b0e0,,300,200,0,139,3.5,1,[],[],350.7,164.5,23,32481,1,0,1,0,1,0,48,0,48,0,1,47,,,,,,,,,,,,,,,,,,,,,,,,,,,,,,
,,,,,,,,,,,,,,,,,,,,5e9ab5df2893af141343bce7please enter your prolific ID here,29,male,2020-07-27_17h02.21.411,AvatarAutomaticProl,3.2.2,Win32,60,5e9ab5df2893af141343bce7,5f1b026ff9f4e82811599350,5f1eebb043cfbc032404b0e0,,500,-400,0,112,3.5,0,[],[],334,-238,-12,123801,1,0,1,0,1,0,48,0,48,0,1,47,,,,,,,,,,,,,,,,,,,,,,,,,,,,,,
,,,,,,,,,,,,,,,,,,,,5e9ab5df2893af141343bce7please enter your prolific ID here,29,male,2020-07-27_17h02.21.411,AvatarAutomaticProl,3.2.2,Win32,60,5e9ab5df2893af141343bce7,5f1b026ff9f4e82811599350,5f1eebb043cfbc032404b0e0,,400,300,0,66,3.5,0,[],[],350.7,213.5,-12,4783,1,0,1,0,1,0,48,0,48,0,1,47,,,,,,,,,,,,,,,,,,,,,,,,,,,,,,
,,,,,,,,,,,,,,,,,,,,5e9ab5df2893af141343bce7please enter your prolific ID here,29,male,2020-07-27_17h02.21.411,AvatarAutomaticProl,3.2.2,Win32,60,5e9ab5df2893af141343bce7,5f1b026ff9f4e82811599350,5f1eebb043cfbc032404b0e0,,500,400,0,141,3.5,0,[],[],450.9,245,23,6017,1,0,1,0,1,0,48,0,48,0,1,47,,,,,,,,,,,,,,,,,,,,,,,,,,,,,,
,,,,,,,,,,,,,,,,,,,,5e9ab5df2893af141343bce7please enter your prolific ID here,29,male,2020-07-27_17h02.21.411,AvatarAutomaticProl,3.2.2,Win32,60,5e9ab5df2893af141343bce7,5f1b026ff9f4e82811599350,5f1eebb043cfbc032404b0e0,,200,100,0,75,3.5,1,[],[],467.6,56,-5,3983,1,0,1,0,1,0,48,0,48,0,1,47,,,,,,,,,,,,,,,,,,,,,,,,,,,,,,
,,,,,,,,,,,,,,,,,,,,5e9ab5df2893af141343bce7please enter your prolific ID here,29,male,2020-07-27_17h02.21.411,AvatarAutomaticProl,3.2.2,Win32,60,5e9ab5df2893af141343bce7,5f1b026ff9f4e82811599350,5f1eebb043cfbc032404b0e0,,200,100,0,128,3.5,1,[],[],367.4,56,2,4316,1,0,1,0,1,0,48,0,48,0,1,47,,,,,,,,,,,,,,,,,,,,,,,,,,,,,,
,,,,,,,,,,,,,,,,,,,,5e9ab5df2893af141343bce7please enter your prolific ID here,29,male,2020-07-27_17h02.21.411,AvatarAutomaticProl,3.2.2,Win32,60,5e9ab5df2893af141343bce7,5f1b026ff9f4e82811599350,5f1eebb043cfbc032404b0e0,,500,-400,0,102,3.5,0,[],[],350.7,-238,5.5,6417,1,0,1,0,1,0,48,0,48,0,1,47,,,,,,,,,,,,,,,,,,,,,,,,,,,,,,
,,,,,,,,,,,,,,,,,,,,5e9ab5df2893af141343bce7please enter your prolific ID here,29,male,2020-07-27_17h02.21.411,AvatarAutomaticProl,3.2.2,Win32,60,5e9ab5df2893af141343bce7,5f1b026ff9f4e82811599350,5f1eebb043cfbc032404b0e0,,300,200,0,109,3.5,1,[],[],417.5,161,16,5049,1,0,1,0,1,0,48,0,48,0,1,47,,,,,,,,,,,,,,,,,,,,,,,,,,,,,,
,,,,,,,,,,,,,,,,,,,,5e9ab5df2893af141343bce7please enter your prolific ID here,29,male,2020-07-27_17h02.21.411,AvatarAutomaticProl,3.2.2,Win32,60,5e9ab5df2893af141343bce7,5f1b026ff9f4e82811599350,5f1eebb043cfbc032404b0e0,,400,-300,0,81,3.5,1,[],[],283.9,-262.5,19.5,4750,1,0,1,0,1,0,48,0,48,0,1,47,,,,,,,,,,,,,,,,,,,,,,,,,,,,,,
,,,,,,,,,,,,,,,,,,,,5e9ab5df2893af141343bce7please enter your prolific ID here,29,male,2020-07-27_17h02.21.411,AvatarAutomaticProl,3.2.2,Win32,60,5e9ab5df2893af141343bce7,5f1b026ff9f4e82811599350,5f1eebb043cfbc032404b0e0,,400,-300,0,114,3.5,0,[],[],317.3,-150.5,19.5,7300,1,0,1,0,1,0,48,0,48,0,1,47,,,,,,,,,,,,,,,,,,,,,,,,,,,,,,
,,,,,,,,,,,,,,,,,,,,5e9ab5df2893af141343bce7please enter your prolific ID here,29,male,2020-07-27_17h02.21.411,AvatarAutomaticProl,3.2.2,Win32,60,5e9ab5df2893af141343bce7,5f1b026ff9f4e82811599350,5f1eebb043cfbc032404b0e0,,200,100,0,144,3.5,1,[],[],517.7,56,-5,5050,1,0,1,0,1,0,48,0,48,0,1,47,,,,,,,,,,,,,,,,,,,,,,,,,,,,,,
,,,,,,,,,,,,,,,,,,,,5e9ab5df2893af141343bce7please enter your prolific ID here,29,male,2020-07-27_17h02.21.411,AvatarAutomaticProl,3.2.2,Win32,60,5e9ab5df2893af141343bce7,5f1b026ff9f4e82811599350,5f1eebb043cfbc032404b0e0,,200,-100,0,96,3.5,1,[],[],384.1,-56,9,4116,1,0,1,0,1,0,48,0,48,0,1,47,,,,,,,,,,,,,,,,,,,,,,,,,,,,,,
,,,,,,,,,,,,,,,,,,,,5e9ab5df2893af141343bce7please enter your prolific ID here,29,male,2020-07-27_17h02.21.411,AvatarAutomaticProl,3.2.2,Win32,60,5e9ab5df2893af141343bce7,5f1b026ff9f4e82811599350,5f1eebb043cfbc032404b0e0,,400,300,0,134,3.5,0,[],[],417.5,231,2,5367,1,0,1,0,1,0,48,0,48,0,1,47,,,,,,,,,,,,,,,,,,,,,,,,,,,,,,
,,,,,,,,,,,,,,,,,,,,5e9ab5df2893af141343bce7please enter your prolific ID here,29,male,2020-07-27_17h02.21.411,AvatarAutomaticProl,3.2.2,Win32,60,5e9ab5df2893af141343bce7,5f1b026ff9f4e82811599350,5f1eebb043cfbc032404b0e0,,400,-300,0,142,3.5,0,[],[],484.3,-227.5,19.5,5633,1,0,1,0,1,0,48,0,48,0,1,47,,,,,,,,,,,,,,,,,,,,,,,,,,,,,,
,,,,,,,,,,,,,,,,,,,,5e9ab5df2893af141343bce7please enter your prolific ID here,29,male,2020-07-27_17h02.21.411,AvatarAutomaticProl,3.2.2,Win32,60,5e9ab5df2893af141343bce7,5f1b026ff9f4e82811599350,5f1eebb043cfbc032404b0e0,,500,-400,0,66,3.5,0,[],[],250.5,-280,19.5,4401,1,0,1,0,1,0,48,0,48,0,1,47,,,,,,,,,,,,,,,,,,,,,,,,,,,,,,
,,,,,,,,,,,,,,,,,,,,5e9ab5df2893af141343bce7please enter your prolific ID here,29,male,2020-07-27_17h02.21.411,AvatarAutomaticProl,3.2.2,Win32,60,5e9ab5df2893af141343bce7,5f1b026ff9f4e82811599350,5f1eebb043cfbc032404b0e0,,200,100,0,134,3.5,1,[],[],317.3,56,9,4367,1,0,1,0,1,0,48,0,48,0,1,47,,,,,,,,,,,,,,,,,,,,,,,,,,,,,,
,,,,,,,,,,,,,,,,,,,,5e9ab5df2893af141343bce7please enter your prolific ID here,29,male,2020-07-27_17h02.21.411,AvatarAutomaticProl,3.2.2,Win32,60,5e9ab5df2893af141343bce7,5f1b026ff9f4e82811599350,5f1eebb043cfbc032404b0e0,,300,-200,0,135,3.5,1,[],[],250.5,-157.5,-5,4999,1,0,1,0,1,0,48,0,48,0,1,47,,,,,,,,,,,,,,,,,,,,,,,,,,,,,,
,,,,,,,,,,,,,,,,,,,,5e9ab5df2893af141343bce7please enter your prolific ID here,29,male,2020-07-27_17h02.21.411,AvatarAutomaticProl,3.2.2,Win32,60,5e9ab5df2893af141343bce7,5f1b026ff9f4e82811599350,5f1eebb043cfbc032404b0e0,,200,-100,0,140,3.5,1,[],[],317.3,-56,-1.5,4500,1,0,1,0,1,0,48,0,48,0,1,47,,,,,,,,,,,,,,,,,,,,,,,,,,,,,,
,,,,,,,,,,,,,,,,,,,,5e9ab5df2893af141343bce7please enter your prolific ID here,29,male,2020-07-27_17h02.21.411,AvatarAutomaticProl,3.2.2,Win32,60,5e9ab5df2893af141343bce7,5f1b026ff9f4e82811599350,5f1eebb043cfbc032404b0e0,,200,-100,0,114,3.5,1,[],[],400.8,-56,-5,4200,1,0,1,0,1,0,48,0,48,0,1,47,,,,,,,,,,,,,,,,,,,,,,,,,,,,,,
,,,,,,,,,,,,,,,,,,,,5e9ab5df2893af141343bce7please enter your prolific ID here,29,male,2020-07-27_17h02.21.411,AvatarAutomaticProl,3.2.2,Win32,60,5e9ab5df2893af141343bce7,5f1b026ff9f4e82811599350,5f1eebb043cfbc032404b0e0,,500,400,0,97,3.5,0,[],[],384.1,241.5,2,4766,1,0,1,0,1,0,48,0,48,0,1,47,,,,,,,,,,,,,,,,,,,,,,,,,,,,,,
,,,,,,,,,,,,,,,,,,,,5e9ab5df2893af141343bce7please enter your prolific ID here,29,male,2020-07-27_17h02.21.411,AvatarAutomaticProl,3.2.2,Win32,60,5e9ab5df2893af141343bce7,5f1b026ff9f4e82811599350,5f1eebb043cfbc032404b0e0,,400,-300,0,149,3.5,0,[],[],350.7,-224,9,5833,1,0,1,0,1,0,48,0,48,0,1,47,,,,,,,,,,,,,,,,,,,,,,,,,,,,,,
,,,,,,,,,,,,,,,,,,,,5e9ab5df2893af141343bce7please enter your prolific ID here,29,male,2020-07-27_17h02.21.411,AvatarAutomaticProl,3.2.2,Win32,60,5e9ab5df2893af141343bce7,5f1b026ff9f4e82811599350,5f1eebb043cfbc032404b0e0,,400,-300,0,71,3.5,1,[],[],267.2,-255.5,-1.5,4267,1,0,1,0,1,0,48,0,48,0,1,47,,,,,,,,,,,,,,,,,,,,,,,,,,,,,,
,,,,,,,,,,,,,,,,,,,,5e9ab5df2893af141343bce7please enter your prolific ID here,29,male,2020-07-27_17h02.21.411,AvatarAutomaticProl,3.2.2,Win32,60,5e9ab5df2893af141343bce7,5f1b026ff9f4e82811599350,5f1eebb043cfbc032404b0e0,,300,200,0,101,3.5,1,[],[],350.7,157.5,2,4400,1,0,1,0,1,0,48,0,48,0,1,47,,,,,,,,,,,,,,,,,,,,,,,,,,,,,,
,,,,,,,,,,,,,,,,,,,,5e9ab5df2893af141343bce7please enter your prolific ID here,29,male,2020-07-27_17h02.21.411,AvatarAutomaticProl,3.2.2,Win32,60,5e9ab5df2893af141343bce7,5f1b026ff9f4e82811599350,5f1eebb043cfbc032404b0e0,,500,-400,0,130,3.5,0,[],[],517.7,-217,12.5,5217,1,0,1,0,1,0,48,0,48,0,1,47,,,,,,,,,,,,,,,,,,,,,,,,,,,,,,
,,,,,,,,,,,,,,,,,,,,5e9ab5df2893af141343bce7please enter your prolific ID here,29,male,2020-07-27_17h02.21.411,AvatarAutomaticProl,3.2.2,Win32,60,5e9ab5df2893af141343bce7,5f1b026ff9f4e82811599350,5f1eebb043cfbc032404b0e0,,500,-400,0,135,3.5,0,[],[],384.1,-217,2,24384,1,0,1,0,1,0,48,0,48,0,1,47,,,,,,,,,,,,,,,,,,,,,,,,,,,,,,
,,,,,,,,,,,,,,,,,,,,5e9ab5df2893af141343bce7please enter your prolific ID here,29,male,2020-07-27_17h02.21.411,AvatarAutomaticProl,3.2.2,Win32,60,5e9ab5df2893af141343bce7,5f1b026ff9f4e82811599350,5f1eebb043cfbc032404b0e0,,300,200,0,131,3.5,1,[],[],283.9,157.5,12.5,5116,1,0,1,0,1,0,48,0,48,0,1,47,,,,,,,,,,,,,,,,,,,,,,,,,,,,,,
,,,,,,,,,,,,,,,,,,,,5e9ab5df2893af141343bce7please enter your prolific ID here,29,male,2020-07-27_17h02.21.411,AvatarAutomaticProl,3.2.2,Win32,60,5e9ab5df2893af141343bce7,5f1b026ff9f4e82811599350,5f1eebb043cfbc032404b0e0,,200,-100,0,128,3.5,1,[],[],551.1,-56,-5,5433,1,0,1,0,1,0,48,0,48,0,1,47,,,,,,,,,,,,,,,,,,,,,,,,,,,,,,
,,,,,,,,,,,,,,,,,,,,5e9ab5df2893af141343bce7please enter your prolific ID here,29,male,2020-07-27_17h02.21.411,AvatarAutomaticProl,3.2.2,Win32,60,5e9ab5df2893af141343bce7,5f1b026ff9f4e82811599350,5f1eebb043cfbc032404b0e0,,500,400,0,80,3.5,0,[],[],334,241.5,2,4650,1,0,1,0,1,0,48,0,48,0,1,47,,,,,,,,,,,,,,,,,,,,,,,,,,,,,,
,,,,,,,,,,,,,,,,,,,,5e9ab5df2893af141343bce7please enter your prolific ID here,29,male,2020-07-27_17h02.21.411,AvatarAutomaticProl,3.2.2,Win32,60,5e9ab5df2893af141343bce7,5f1b026ff9f4e82811599350,5f1eebb043cfbc032404b0e0,,200,100,0,98,3.5,1,[],[],417.5,59.5,12.5,3866,1,0,1,0,1,0,48,0,48,0,1,47,,,,,,,,,,,,,,,,,,,,,,,,,,,,,,
,,,,,,,,,,,,,,,,,,,,5e9ab5df2893af141343bce7please enter your prolific ID here,29,male,2020-07-27_17h02.21.411,AvatarAutomaticProl,3.2.2,Win32,60,5e9ab5df2893af141343bce7,5f1b026ff9f4e82811599350,5f1eebb043cfbc032404b0e0,,300,-200,0,118,3.5,1,[],[],350.7,-157.5,-8.5,5717,1,0,1,0,1,0,48,0,48,0,1,47,,,,,,,,,,,,,,,,,,,,,,,,,,,,,,
,,,,,,,,,,,,,,,,,,,,5e9ab5df2893af141343bce7please enter your prolific ID here,29,male,2020-07-27_17h02.21.411,AvatarAutomaticProl,3.2.2,Win32,60,5e9ab5df2893af141343bce7,5f1b026ff9f4e82811599350,5f1eebb043cfbc032404b0e0,,400,-300,0,65,3.5,0,[],[],467.6,-217,-5,4265,1,0,1,0,1,0,48,0,48,0,1,47,,,,,,,,,,,,,,,,,,,,,,,,,,,,,,
,,,,,,,,,,,,,,,,,,,,5e9ab5df2893af141343bce7please enter your prolific ID here,29,male,2020-07-27_17h02.21.411,AvatarAutomaticProl,3.2.2,Win32,60,5e9ab5df2893af141343bce7,5f1b026ff9f4e82811599350,5f1eebb043cfbc032404b0e0,,300,200,0,95,3.5,1,[],[],484.3,164.5,26.5,4684,1,0,1,0,1,0,48,0,48,0,1,47,,,,,,,,,,,,,,,,,,,,,,,,,,,,,,
,,,,,,,,,,,,,,,,,,,,5e9ab5df2893af141343bce7please enter your prolific ID here,29,male,2020-07-27_17h02.21.411,AvatarAutomaticProl,3.2.2,Win32,60,5e9ab5df2893af141343bce7,5f1b026ff9f4e82811599350,5f1eebb043cfbc032404b0e0,,500,-400,0,102,3.5,0,[],[],367.4,-210,-1.5,4883,1,0,1,0,1,0,48,0,48,0,1,47,,,,,,,,,,,,,,,,,,,,,,,,,,,,,,
,,,,,,,,,,,,,,,,,,,,5e9ab5df2893af141343bce7please enter your prolific ID here,29,male,2020-07-27_17h02.21.411,AvatarAutomaticProl,3.2.2,Win32,60,5e9ab5df2893af141343bce7,5f1b026ff9f4e82811599350,5f1eebb043cfbc032404b0e0,,300,200,0,132,3.5,1,[],[],417.5,161,-19,5684,1,0,1,0,1,0,48,0,48,0,1,47,,,,,,,,,,,,,,,,,,,,,,,,,,,,,,
,,,,,,,,,,,,,,,,,,,,5e9ab5df2893af141343bce7please enter your prolific ID here,29,male,2020-07-27_17h02.21.411,AvatarAutomaticProl,3.2.2,Win32,60,5e9ab5df2893af141343bce7,5f1b026ff9f4e82811599350,5f1eebb043cfbc032404b0e0,,200,-100,0,136,3.5,1,[],[],350.7,-56,5.5,4867,1,0,1,0,1,0,48,0,48,0,1,47,,,,,,,,,,,,,,,,,,,,,,,,,,,,,,
,,,,,,,,,,,,,,,,,,,,5e9ab5df2893af141343bce7please enter your prolific ID here,29,male,2020-07-27_17h02.21.411,AvatarAutomaticProl,3.2.2,Win32,60,5e9ab5df2893af141343bce7,5f1b026ff9f4e82811599350,5f1eebb043cfbc032404b0e0,,500,400,0,74,3.5,0,[],[],367.4,245,5.5,4450,1,0,1,0,1,0,48,0,48,0,1,47,,,,,,,,,,,,,,,,,,,,,,,,,,,,,,
,,,,,,,,,,,,,,,,,,,,5e9ab5df2893af141343bce7please enter your prolific ID here,29,male,2020-07-27_17h02.21.411,AvatarAutomaticProl,3.2.2,Win32,60,5e9ab5df2893af141343bce7,5f1b026ff9f4e82811599350,5f1eebb043cfbc032404b0e0,,200,-100,0,114,3.5,1,[],[],334,-59.5,19.5,5216,1,0,1,0,1,0,48,0,48,0,1,47,,,,,,,,,,,,,,,,,,,,,,,,,,,,,,
,,,,,,,,,,,,,,,,,,,,5e9ab5df2893af141343bce7please enter your prolific ID here,29,male,2020-07-27_17h02.21.411,AvatarAutomaticProl,3.2.2,Win32,60,5e9ab5df2893af141343bce7,5f1b026ff9f4e82811599350,5f1eebb043cfbc032404b0e0,,300,200,0,97,3.5,1,[],[],450.9,164.5,23,4633,1,0,1,0,1,0,48,0,48,0,1,47,,,,,,,,,,,,,,,,,,,,,,,,,,,,,,
,,,,,,,,,,,,,,,,,,,,5e9ab5df2893af141343bce7please enter your prolific ID here,29,male,2020-07-27_17h02.21.411,AvatarAutomaticProl,3.2.2,Win32,60,5e9ab5df2893af141343bce7,5f1b026ff9f4e82811599350,5f1eebb043cfbc032404b0e0,,300,200,0,133,3.5,1,[],[],384.1,157.5,5.5,5219,1,0,1,0,1,0,48,0,48,0,1,47,,,,,,,,,,,,,,,,,,,,,,,,,,,,,,
,,,,,,,,,,,,,,,,,,,,5e9ab5df2893af141343bce7please enter your prolific ID here,29,male,2020-07-27_17h02.21.411,AvatarAutomaticProl,3.2.2,Win32,60,5e9ab5df2893af141343bce7,5f1b026ff9f4e82811599350,5f1eebb043cfbc032404b0e0,,400,-300,0,147,3.5,0,[],[],367.4,-213.5,-12,6450,1,0,1,0,1,0,48,0,48,0,1,47,,,,,,,,,,,,,,,,,,,,,,,,,,,,,,
,,,,,,,,,,,,,,,,,,,,5e9ab5df2893af141343bce7please enter your prolific ID here,29,male,2020-07-27_17h02.21.411,AvatarAutomaticProl,3.2.2,Win32,60,5e9ab5df2893af141343bce7,5f1b026ff9f4e82811599350,5f1eebb043cfbc032404b0e0,,200,-100,0,143,3.5,1,[],[],233.8,-56,9,4966,1,0,1,0,1,0,48,0,48,0,1,47,,,,,,,,,,,,,,,,,,,,,,,,,,,,,,
,,,,,,,,,,,,,,,,,,,,5e9ab5df2893af141343bce7please enter your prolific ID here,29,male,2020-07-27_17h02.21.411,AvatarAutomaticProl,3.2.2,Win32,60,5e9ab5df2893af141343bce7,5f1b026ff9f4e82811599350,5f1eebb043cfbc032404b0e0,,400,-300,0,117,3.5,1,[],[],334,-266,26.5,6699,1,0,1,0,1,0,48,0,48,0,1,47,,,,,,,,,,,,,,,,,,,,,,,,,,,,,,
,,,,,,,,,,,,,,,,,,,,5e9ab5df2893af141343bce7please enter your prolific ID here,29,male,2020-07-27_17h02.21.411,AvatarAutomaticProl,3.2.2,Win32,60,5e9ab5df2893af141343bce7,5f1b026ff9f4e82811599350,5f1eebb043cfbc032404b0e0,,400,300,0,130,3.5,0,[],[],450.9,238,16,5417,1,0,1,0,1,0,48,0,48,0,1,47,,,,,,,,,,,,,,,,,,,,,,,,,,,,,,
,,,,,,,,,,,,,,,,,,,,5e9ab5df2893af141343bce7please enter your prolific ID here,29,male,2020-07-27_17h02.21.411,AvatarAutomaticProl,3.2.2,Win32,60,5e9ab5df2893af141343bce7,5f1b026ff9f4e82811599350,5f1eebb043cfbc032404b0e0,,300,-200,0,129,3.5,1,[],[],133.6,-157.5,-8.5,5303,1,0,1,0,1,0,48,0,48,0,1,47,,,,,,,,,,,,,,,,,,,,,,,,,,,,,,
,,,,,,,,,,,,,,,,,,,,5e9ab5df2893af141343bce7please enter your prolific ID here,29,male,2020-07-27_17h02.21.411,AvatarAutomaticProl,3.2.2,Win32,60,5e9ab5df2893af141343bce7,5f1b026ff9f4e82811599350,5f1eebb043cfbc032404b0e0,,,,,,,,,,,,,9197,1,0,1,0,1,0,,,,,,,200,100,0,const,3.5,137,right,-4,14,[],[],434.2,59,-15.5,1,40,0,40,0,1,39,,,,,,,,,
,,,,,,,,,,,,,,,,,,,,5e9ab5df2893af141343bce7please enter your prolific ID here,29,male,2020-07-27_17h02.21.411,AvatarAutomaticProl,3.2.2,Win32,60,5e9ab5df2893af141343bce7,5f1b026ff9f4e82811599350,5f1eebb043cfbc032404b0e0,,,,,,,,,,,,,8267,1,0,1,0,1,0,,,,,,,300,200,0,const,3.5,114,right,-28,75,[],[],300.6,157.5,5.5,1,40,0,40,0,1,39,,,,,,,,,
,,,,,,,,,,,,,,,,,,,,5e9ab5df2893af141343bce7please enter your prolific ID here,29,male,2020-07-27_17h02.21.411,AvatarAutomaticProl,3.2.2,Win32,60,5e9ab5df2893af141343bce7,5f1b026ff9f4e82811599350,5f1eebb043cfbc032404b0e0,,,,,,,,,,,,,5431,1,0,1,0,1,0,,,,,,,300,200,0,const,3.5,61,left,0,7,[],[],233.8,-157.5,-5,1,40,0,40,0,1,39,,,,,,,,,
,,,,,,,,,,,,,,,,,,,,5e9ab5df2893af141343bce7please enter your prolific ID here,29,male,2020-07-27_17h02.21.411,AvatarAutomaticProl,3.2.2,Win32,60,5e9ab5df2893af141343bce7,5f1b026ff9f4e82811599350,5f1eebb043cfbc032404b0e0,,,,,,,,,,,,,9916,1,0,1,0,1,0,,,,,,,500,400,0,const,3.5,77,right,127,-74,[],[],417.5,344,-8.5,0,40,0,40,0,1,39,,,,,,,,,
,,,,,,,,,,,,,,,,,,,,5e9ab5df2893af141343bce7please enter your prolific ID here,29,male,2020-07-27_17h02.21.411,AvatarAutomaticProl,3.2.2,Win32,60,5e9ab5df2893af141343bce7,5f1b026ff9f4e82811599350,5f1eebb043cfbc032404b0e0,,,,,,,,,,,,,7033,1,0,1,0,1,0,,,,,,,400,300,0,const,3.5,103,right,-10,-24,[],[],267.2,179,2,0,40,0,40,0,1,39,,,,,,,,,
,,,,,,,,,,,,,,,,,,,,5e9ab5df2893af141343bce7please enter your prolific ID here,29,male,2020-07-27_17h02.21.411,AvatarAutomaticProl,3.2.2,Win32,60,5e9ab5df2893af141343bce7,5f1b026ff9f4e82811599350,5f1eebb043cfbc032404b0e0,,,,,,,,,,,,,8052,1,0,1,0,1,0,,,,,,,400,300,0,const,3.5,99,right,-179,129,[],[],334,13.5,-1.5,0,40,0,40,0,1,39,,,,,,,,,
,,,,,,,,,,,,,,,,,,,,5e9ab5df2893af141343bce7please enter your prolific ID here,29,male,2020-07-27_17h02.21.411,AvatarAutomaticProl,3.2.2,Win32,60,5e9ab5df2893af141343bce7,5f1b026ff9f4e82811599350,5f1eebb043cfbc032404b0e0,,,,,,,,,,,,,6130,1,0,1,0,1,0,,,,,,,200,100,0,const,3.5,106,right,-3,16,[],[],233.8,56.5,9,1,40,0,40,0,1,39,,,,,,,,,
,,,,,,,,,,,,,,,,,,,,5e9ab5df2893af141343bce7please enter your prolific ID here,29,male,2020-07-27_17h02.21.411,AvatarAutomaticProl,3.2.2,Win32,60,5e9ab5df2893af141343bce7,5f1b026ff9f4e82811599350,5f1eebb043cfbc032404b0e0,,,,,,,,,,,,,6583,1,0,1,0,1,0,,,,,,,300,200,0,const,3.5,89,right,-83,-75,[],[],417.5,78,5.5,0,40,0,40,0,1,39,,,,,,,,,
,,,,,,,,,,,,,,,,,,,,5e9ab5df2893af141343bce7please enter your prolific ID here,29,male,2020-07-27_17h02.21.411,AvatarAutomaticProl,3.2.2,Win32,60,5e9ab5df2893af141343bce7,5f1b026ff9f4e82811599350,5f1eebb043cfbc032404b0e0,,,,,,,,,,,,,5682,1,0,1,0,1,0,,,,,,,200,100,0,const,3.5,111,right,-1,-34,[],[],400.8,58.5,2,1,40,0,40,0,1,39,,,,,,,,,
,,,,,,,,,,,,,,,,,,,,5e9ab5df2893af141343bce7please enter your prolific ID here,29,male,2020-07-27_17h02.21.411,AvatarAutomaticProl,3.2.2,Win32,60,5e9ab5df2893af141343bce7,5f1b026ff9f4e82811599350,5f1eebb043cfbc032404b0e0,,,,,,,,,,,,,5383,1,0,1,0,1,0,,,,,,,200,100,0,const,3.5,72,right,1,-8,[],[],334,57,9,1,40,0,40,0,1,39,,,,,,,,,
,,,,,,,,,,,,,,,,,,,,5e9ab5df2893af141343bce7please enter your prolific ID here,29,male,2020-07-27_17h02.21.411,AvatarAutomaticProl,3.2.2,Win32,60,5e9ab5df2893af141343bce7,5f1b026ff9f4e82811599350,5f1eebb043cfbc032404b0e0,,,,,,,,,,,,,9700,1,0,1,0,1,0,,,,,,,500,400,0,const,3.5,129,left,-267,94,[],[],217.1,-358,2,1,40,0,40,0,1,39,,,,,,,,,
,,,,,,,,,,,,,,,,,,,,5e9ab5df2893af141343bce7please enter your prolific ID here,29,male,2020-07-27_17h02.21.411,AvatarAutomaticProl,3.2.2,Win32,60,5e9ab5df2893af141343bce7,5f1b026ff9f4e82811599350,5f1eebb043cfbc032404b0e0,,,,,,,,,,,,,9116,1,0,1,0,1,0,,,,,,,200,100,0,const,3.5,94,right,-1,-17,[],[],300.6,58.5,-15.5,1,40,0,40,0,1,39,,,,,,,,,
,,,,,,,,,,,,,,,,,,,,5e9ab5df2893af141343bce7please enter your prolific ID here,29,male,2020-07-27_17h02.21.411,AvatarAutomaticProl,3.2.2,Win32,60,5e9ab5df2893af141343bce7,5f1b026ff9f4e82811599350,5f1eebb043cfbc032404b0e0,,,,,,,,,,,,,9165,1,0,1,0,1,0,,,,,,,500,400,0,const,3.5,111,left,290,58,[],[],267.2,223.5,12.5,0,40,0,40,0,1,39,,,,,,,,,
,,,,,,,,,,,,,,,,,,,,5e9ab5df2893af141343bce7please enter your prolific ID here,29,male,2020-07-27_17h02.21.411,AvatarAutomaticProl,3.2.2,Win32,60,5e9ab5df2893af141343bce7,5f1b026ff9f4e82811599350,5f1eebb043cfbc032404b0e0,,,,,,,,,,,,,6932,1,0,1,0,1,0,,,,,,,500,400,0,const,3.5,76,left,-239,70,[],[],367.4,-358,-12,1,40,0,40,0,1,39,,,,,,,,,
,,,,,,,,,,,,,,,,,,,,5e9ab5df2893af141343bce7please enter your prolific ID here,29,male,2020-07-27_17h02.21.411,AvatarAutomaticProl,3.2.2,Win32,60,5e9ab5df2893af141343bce7,5f1b026ff9f4e82811599350,5f1eebb043cfbc032404b0e0,,,,,,,,,,,,,8366,1,0,1,0,1,0,,,,,,,500,400,0,const,3.5,104,right,-5,-133,[],[],250.5,208.5,-19,0,40,0,40,0,1,39,,,,,,,,,
,,,,,,,,,,,,,,,,,,,,5e9ab5df2893af141343bce7please enter your prolific ID here,29,male,2020-07-27_17h02.21.411,AvatarAutomaticProl,3.2.2,Win32,60,5e9ab5df2893af141343bce7,5f1b026ff9f4e82811599350,5f1eebb043cfbc032404b0e0,,,,,,,,,,,,,8199,1,0,1,0,1,0,,,,,,,400,300,0,const,3.5,150,right,-12,135,[],[],400.8,180.5,-8.5,0,40,0,40,0,1,39,,,,,,,,,
,,,,,,,,,,,,,,,,,,,,5e9ab5df2893af141343bce7please enter your prolific ID here,29,male,2020-07-27_17h02.21.411,AvatarAutomaticProl,3.2.2,Win32,60,5e9ab5df2893af141343bce7,5f1b026ff9f4e82811599350,5f1eebb043cfbc032404b0e0,,,,,,,,,,,,,39033,1,0,1,0,1,0,,,,,,,400,300,0,const,3.5,97,right,-149,-146,[],[],384.1,103,19.5,0,40,0,40,0,1,39,,,,,,,,,
,,,,,,,,,,,,,,,,,,,,5e9ab5df2893af141343bce7please enter your prolific ID here,29,male,2020-07-27_17h02.21.411,AvatarAutomaticProl,3.2.2,Win32,60,5e9ab5df2893af141343bce7,5f1b026ff9f4e82811599350,5f1eebb043cfbc032404b0e0,,,,,,,,,,,,,10381,1,0,1,0,1,0,,,,,,,400,300,0,const,3.5,131,right,128,17,[],[],267.2,261,16,1,40,0,40,0,1,39,,,,,,,,,
,,,,,,,,,,,,,,,,,,,,5e9ab5df2893af141343bce7please enter your prolific ID here,29,male,2020-07-27_17h02.21.411,AvatarAutomaticProl,3.2.2,Win32,60,5e9ab5df2893af141343bce7,5f1b026ff9f4e82811599350,5f1eebb043cfbc032404b0e0,,,,,,,,,,,,,6866,1,0,1,0,1,0,,,,,,,300,200,0,const,3.5,91,left,-4,-52,[],[],283.9,-158,12.5,1,40,0,40,0,1,39,,,,,,,,,
,,,,,,,,,,,,,,,,,,,,5e9ab5df2893af141343bce7please enter your prolific ID here,29,male,2020-07-27_17h02.21.411,AvatarAutomaticProl,3.2.2,Win32,60,5e9ab5df2893af141343bce7,5f1b026ff9f4e82811599350,5f1eebb043cfbc032404b0e0,,,,,,,,,,,,,7119,1,0,1,0,1,0,,,,,,,300,200,0,const,3.5,146,left,-5,14,[],[],317.3,-155.5,2,1,40,0,40,0,1,39,,,,,,,,,
,,,,,,,,,,,,,,,,,,,,5e9ab5df2893af141343bce7please enter your prolific ID here,29,male,2020-07-27_17h02.21.411,AvatarAutomaticProl,3.2.2,Win32,60,5e9ab5df2893af141343bce7,5f1b026ff9f4e82811599350,5f1eebb043cfbc032404b0e0,,,,,,,,,,,,,6062,1,0,1,0,1,0,,,,,,,200,100,0,const,3.5,69,left,-3,27,[],[],400.8,-59,9,1,40,0,40,0,1,39,,,,,,,,,
,,,,,,,,,,,,,,,,,,,,5e9ab5df2893af141343bce7please enter your prolific ID here,29,male,2020-07-27_17h02.21.411,AvatarAutomaticProl,3.2.2,Win32,60,5e9ab5df2893af141343bce7,5f1b026ff9f4e82811599350,5f1eebb043cfbc032404b0e0,,,,,,,,,,,,,6798,1,0,1,0,1,0,,,,,,,300,200,0,const,3.5,137,left,-42,-86,[],[],334,-157.5,12.5,1,40,0,40,0,1,39,,,,,,,,,
,,,,,,,,,,,,,,,,,,,,5e9ab5df2893af141343bce7please enter your prolific ID here,29,male,2020-07-27_17h02.21.411,AvatarAutomaticProl,3.2.2,Win32,60,5e9ab5df2893af141343bce7,5f1b026ff9f4e82811599350,5f1eebb043cfbc032404b0e0,,,,,,,,,,,,,7482,1,0,1,0,1,0,,,,,,,400,300,0,const,3.5,137,right,102,88,[],[],434.2,256,2,1,40,0,40,0,1,39,,,,,,,,,
,,,,,,,,,,,,,,,,,,,,5e9ab5df2893af141343bce7please enter your prolific ID here,29,male,2020-07-27_17h02.21.411,AvatarAutomaticProl,3.2.2,Win32,60,5e9ab5df2893af141343bce7,5f1b026ff9f4e82811599350,5f1eebb043cfbc032404b0e0,,,,,,,,,,,,,6300,1,0,1,0,1,0,,,,,,,200,100,0,const,3.5,73,right,-2,-34,[],[],567.8,57.5,-5,1,40,0,40,0,1,39,,,,,,,,,
,,,,,,,,,,,,,,,,,,,,5e9ab5df2893af141343bce7please enter your prolific ID here,29,male,2020-07-27_17h02.21.411,AvatarAutomaticProl,3.2.2,Win32,60,5e9ab5df2893af141343bce7,5f1b026ff9f4e82811599350,5f1eebb043cfbc032404b0e0,,,,,,,,,,,,,5882,1,0,1,0,1,0,,,,,,,300,200,0,const,3.5,96,right,-15,27,[],[],283.9,156.5,-1.5,1,40,0,40,0,1,39,,,,,,,,,
,,,,,,,,,,,,,,,,,,,,5e9ab5df2893af141343bce7please enter your prolific ID here,29,male,2020-07-27_17h02.21.411,AvatarAutomaticProl,3.2.2,Win32,60,5e9ab5df2893af141343bce7,5f1b026ff9f4e82811599350,5f1eebb043cfbc032404b0e0,,,,,,,,,,,,,7849,1,0,1,0,1,0,,,,,,,400,300,0,const,3.5,128,left,-8,32,[],[],233.8,-246,-12,0,40,0,40,0,1,39,,,,,,,,,
,,,,,,,,,,,,,,,,,,,,5e9ab5df2893af141343bce7please enter your prolific ID here,29,male,2020-07-27_17h02.21.411,AvatarAutomaticProl,3.2.2,Win32,60,5e9ab5df2893af141343bce7,5f1b026ff9f4e82811599350,5f1eebb043cfbc032404b0e0,,,,,,,,,,,,,7616,1,0,1,0,1,0,,,,,,,500,400,0,const,3.5,110,right,-124,-118,[],[],334,-1.5,-8.5,0,40,0,40,0,1,39,,,,,,,,,
,,,,,,,,,,,,,,,,,,,,5e9ab5df2893af141343bce7please enter your prolific ID here,29,male,2020-07-27_17h02.21.411,AvatarAutomaticProl,3.2.2,Win32,60,5e9ab5df2893af141343bce7,5f1b026ff9f4e82811599350,5f1eebb043cfbc032404b0e0,,,,,,,,,,,,,7550,1,0,1,0,1,0,,,,,,,300,200,0,const,3.5,128,left,-2,-23,[],[],334,-156,-1.5,1,40,0,40,0,1,39,,,,,,,,,
,,,,,,,,,,,,,,,,,,,,5e9ab5df2893af141343bce7please enter your prolific ID here,29,male,2020-07-27_17h02.21.411,AvatarAutomaticProl,3.2.2,Win32,60,5e9ab5df2893af141343bce7,5f1b026ff9f4e82811599350,5f1eebb043cfbc032404b0e0,,,,,,,,,,,,,6398,1,0,1,0,1,0,,,,,,,300,200,0,const,3.5,65,left,-9,-61,[],[],334,-156,9,1,40,0,40,0,1,39,,,,,,,,,
,,,,,,,,,,,,,,,,,,,,5e9ab5df2893af141343bce7please enter your prolific ID here,29,male,2020-07-27_17h02.21.411,AvatarAutomaticProl,3.2.2,Win32,60,5e9ab5df2893af141343bce7,5f1b026ff9f4e82811599350,5f1eebb043cfbc032404b0e0,,,,,,,,,,,,,6499,1,0,1,0,1,0,,,,,,,200,100,0,const,3.5,79,right,-6,38,[],[],350.7,57,-1.5,1,40,0,40,0,1,39,,,,,,,,,
,,,,,,,,,,,,,,,,,,,,5e9ab5df2893af141343bce7please enter your prolific ID here,29,male,2020-07-27_17h02.21.411,AvatarAutomaticProl,3.2.2,Win32,60,5e9ab5df2893af141343bce7,5f1b026ff9f4e82811599350,5f1eebb043cfbc032404b0e0,,,,,,,,,,,,,6416,1,0,1,0,1,0,,,,,,,400,300,0,const,3.5,76,left,157,86,[],[],367.4,-81,9,0,40,0,40,0,1,39,,,,,,,,,
,,,,,,,,,,,,,,,,,,,,5e9ab5df2893af141343bce7please enter your prolific ID here,29,male,2020-07-27_17h02.21.411,AvatarAutomaticProl,3.2.2,Win32,60,5e9ab5df2893af141343bce7,5f1b026ff9f4e82811599350,5f1eebb043cfbc032404b0e0,,,,,,,,,,,,,7516,1,0,1,0,1,0,,,,,,,200,100,0,const,3.5,149,right,-4,46,[],[],400.8,59,12.5,1,40,0,40,0,1,39,,,,,,,,,
,,,,,,,,,,,,,,,,,,,,5e9ab5df2893af141343bce7please enter your prolific ID here,29,male,2020-07-27_17h02.21.411,AvatarAutomaticProl,3.2.2,Win32,60,5e9ab5df2893af141343bce7,5f1b026ff9f4e82811599350,5f1eebb043cfbc032404b0e0,,,,,,,,,,,,,7150,1,0,1,0,1,0,,,,,,,400,300,0,const,3.5,80,left,-200,102,[],[],384.1,-256,2,1,40,0,40,0,1,39,,,,,,,,,
,,,,,,,,,,,,,,,,,,,,5e9ab5df2893af141343bce7please enter your prolific ID here,29,male,2020-07-27_17h02.21.411,AvatarAutomaticProl,3.2.2,Win32,60,5e9ab5df2893af141343bce7,5f1b026ff9f4e82811599350,5f1eebb043cfbc032404b0e0,,,,,,,,,,,,,6249,1,0,1,0,1,0,,,,,,,500,400,0,const,3.5,108,right,214,-102,[],[],334,364.5,23,1,40,0,40,0,1,39,,,,,,,,,
,,,,,,,,,,,,,,,,,,,,5e9ab5df2893af141343bce7please enter your prolific ID here,29,male,2020-07-27_17h02.21.411,AvatarAutomaticProl,3.2.2,Win32,60,5e9ab5df2893af141343bce7,5f1b026ff9f4e82811599350,5f1eebb043cfbc032404b0e0,,,,,,,,,,,,,7316,1,0,1,0,1,0,,,,,,,500,400,0,const,3.5,92,left,-266,49,[],[],334,-357,5.5,1,40,0,40,0,1,39,,,,,,,,,
,,,,,,,,,,,,,,,,,,,,5e9ab5df2893af141343bce7please enter your prolific ID here,29,male,2020-07-27_17h02.21.411,AvatarAutomaticProl,3.2.2,Win32,60,5e9ab5df2893af141343bce7,5f1b026ff9f4e82811599350,5f1eebb043cfbc032404b0e0,,,,,,,,,,,,,7099,1,0,1,0,1,0,,,,,,,500,400,0,const,3.5,112,right,248,-77,[],[],217.1,360,-15.5,1,40,0,40,0,1,39,,,,,,,,,
,,,,,,,,,,,,,,,,,,,,5e9ab5df2893af141343bce7please enter your prolific ID here,29,male,2020-07-27_17h02.21.411,AvatarAutomaticProl,3.2.2,Win32,60,5e9ab5df2893af141343bce7,5f1b026ff9f4e82811599350,5f1eebb043cfbc032404b0e0,,,,,,,,,,,,,6666,1,0,1,0,1,0,,,,,,,400,300,0,const,3.5,131,left,-115,-1,[],[],200.4,-258.5,12.5,1,40,0,40,0,1,39,,,,,,,,,
,,,,,,,,,,,,,,,,,,,,5e9ab5df2893af141343bce7please enter your prolific ID here,29,male,2020-07-27_17h02.21.411,AvatarAutomaticProl,3.2.2,Win32,60,5e9ab5df2893af141343bce7,5f1b026ff9f4e82811599350,5f1eebb043cfbc032404b0e0,,,,,,,,,,,,,5966,1,0,1,0,1,0,,,,,,,500,400,0,const,3.5,102,right,245,-190,[],[],233.8,357,2,1,40,0,40,0,1,39,,,,,,,,,
,,,,,,,,,,,,,,,,,,,,5e9ab5df2893af141343bce7please enter your prolific ID here,29,male,2020-07-27_17h02.21.411,AvatarAutomaticProl,3.2.2,Win32,60,5e9ab5df2893af141343bce7,5f1b026ff9f4e82811599350,5f1eebb043cfbc032404b0e0,,,,,,,,,,,,,6899,1,0,1,0,1,0,,,,,,,300,200,0,const,3.5,132,right,-7,33,[],[],267.2,161,-15.5,1,40,0,40,0,1,39,,,,,,,,,
,,,,,,,,,,,,,,,,,,,,5e9ab5df2893af141343bce7please enter your prolific ID here,29,male,2020-07-27_17h02.21.411,AvatarAutomaticProl,3.2.2,Win32,60,5e9ab5df2893af141343bce7,5f1b026ff9f4e82811599350,5f1eebb043cfbc032404b0e0,,,,,,,,,,,,,5166,1,0,1,0,1,0,,,,,,,200,100,0,const,3.5,64,right,-1,-12,[],[],484.3,72.5,33.5,1,40,0,40,0,1,39,,,,,,,,,
,,,,,,,,,,,,,,,,,,,,5e9ab5df2893af141343bce7please enter your prolific ID here,29,male,2020-07-27_17h02.21.411,AvatarAutomaticProl,3.2.2,Win32,60,5e9ab5df2893af141343bce7,5f1b026ff9f4e82811599350,5f1eebb043cfbc032404b0e0,,,,,,,,,,,,,10681,1,0,1,0,1,0,,,,,,,,,,,,,,,,,,,,,,,,,,,,400,-0.413333333,8,0,8,0,1,7,
,,,,,,,,,,,,,,,,,,,,5e9ab5df2893af141343bce7please enter your prolific ID here,29,male,2020-07-27_17h02.21.411,AvatarAutomaticProl,3.2.2,Win32,60,5e9ab5df2893af141343bce7,5f1b026ff9f4e82811599350,5f1eebb043cfbc032404b0e0,,,,,,,,,,,,,5483,1,0,1,0,1,0,,,,,,,,,,,,,,,,,,,,,,,,,,,,300,-0.513333333,8,0,8,0,1,7,
,,,,,,,,,,,,,,,,,,,,5e9ab5df2893af141343bce7please enter your prolific ID here,29,male,2020-07-27_17h02.21.411,AvatarAutomaticProl,3.2.2,Win32,60,5e9ab5df2893af141343bce7,5f1b026ff9f4e82811599350,5f1eebb043cfbc032404b0e0,,,,,,,,,,,,,3382,1,0,1,0,1,0,,,,,,,,,,,,,,,,,,,,,,,,,,,,500,0.706666667,8,0,8,0,1,7,
,,,,,,,,,,,,,,,,,,,,5e9ab5df2893af141343bce7please enter your prolific ID here,29,male,2020-07-27_17h02.21.411,AvatarAutomaticProl,3.2.2,Win32,60,5e9ab5df2893af141343bce7,5f1b026ff9f4e82811599350,5f1eebb043cfbc032404b0e0,,,,,,,,,,,,,1916,1,0,1,0,1,0,,,,,,,,,,,,,,,,,,,,,,,,,,,,200,-0.92,8,0,8,0,1,7,
,,,,,,,,,,,,,,,,,,,,5e9ab5df2893af141343bce7please enter your prolific ID here,29,male,2020-07-27_17h02.21.411,AvatarAutomaticProl,3.2.2,Win32,60,5e9ab5df2893af141343bce7,5f1b026ff9f4e82811599350,5f1eebb043cfbc032404b0e0,,,,,,,,,,,,,1633,1,0,1,0,1,0,,,,,,,,,,,,,,,,,,,,,,,,,,,,200,-0.86,8,0,8,0,1,7,
,,,,,,,,,,,,,,,,,,,,5e9ab5df2893af141343bce7please enter your prolific ID here,29,male,2020-07-27_17h02.21.411,AvatarAutomaticProl,3.2.2,Win32,60,5e9ab5df2893af141343bce7,5f1b026ff9f4e82811599350,5f1eebb043cfbc032404b0e0,,,,,,,,,,,,,1616,1,0,1,0,1,0,,,,,,,,,,,,,,,,,,,,,,,,,,,,500,0.766666667,8,0,8,0,1,7,
,,,,,,,,,,,,,,,,,,,,5e9ab5df2893af141343bce7please enter your prolific ID here,29,male,2020-07-27_17h02.21.411,AvatarAutomaticProl,3.2.2,Win32,60,5e9ab5df2893af141343bce7,5f1b026ff9f4e82811599350,5f1eebb043cfbc032404b0e0,,,,,,,,,,,,,2500,1,0,1,0,1,0,,,,,,,,,,,,,,,,,,,,,,,,,,,,400,0.573333333,8,0,8,0,1,7,
,,,,,,,,,,,,,,,,,,,,5e9ab5df2893af141343bce7please enter your prolific ID here,29,male,2020-07-27_17h02.21.411,AvatarAutomaticProl,3.2.2,Win32,60,5e9ab5df2893af141343bce7,5f1b026ff9f4e82811599350,5f1eebb043cfbc032404b0e0,,,,,,,,,,,,,2133,1,0,1,0,1,0,,,,,,,,,,,,,,,,,,,,,,,,,,,,300,-0.713333333,8,0,8,0,1,7,
,,,,,,,,,,,,,,,,,,,,5e9ab5df2893af141343bce7please enter your prolific ID here,29,male,2020-07-27_17h02.21.411,AvatarAutomaticProl,3.2.2,Win32,60,5e9ab5df2893af141343bce7,5f1b026ff9f4e82811599350,5f1eebb043cfbc032404b0e0,,,,,,,,,,,,,,,,,,,,,,,,,,,,,,,,,,,,,,,,,,,,,,,,,,,,,,,1345715
