Browser,true_x_res,true_y_res,x_adjustment,y_adjustment,Params_TravelTime,Params_yOffset,Params_Reach,Params_ScreenWidth,Params_ScreenHeight,Params_Hz,Params_HzScale,Params_conf_linewidth,params_consent,ConsentLoop.thisRepN,ConsentLoop.thisTrialN,ConsentLoop.thisN,ConsentLoop.thisIndex,ConsentLoop.ran,ConsentLoop.order,participant,Age,Gender,date,expName,psychopyVersion,OS,frameRate,PROLIFIC_PID,STUDY_ID,SESSION_ID,Demo_speedCond,Demo_delta,Demo_xposTarget,Demo_yposTarget,Demo_Delay,Demo_AvSpeed,Demo_Success,Demo_motion,Demo_Click,Demo_RTms,Demo_finalX,Demo_finalY,Trial_duration,BlockLoop.thisRepN,BlockLoop.thisTrialN,BlockLoop.thisN,BlockLoop.thisIndex,BlockLoop.ran,BlockLoop.order,DemoLoop.thisRepN,DemoLoop.thisTrialN,DemoLoop.thisN,DemoLoop.thisIndex,DemoLoop.ran,DemoLoop.order,Decision_Delta,Decision_xposTarget,Decision_yposTarget,Decision_SpeedCond,Decision_AvSpeed,Decision_delay,Decision_targetSide,Decision_placement,Decision_initplace,Decision_Driving,Decision_Click,Decision_RTms,Decision_finalX,Decision_finalY,Decision_success,DecisionTrialLoop.thisRepN,DecisionTrialLoop.thisTrialN,DecisionTrialLoop.thisN,DecisionTrialLoop.thisIndex,DecisionTrialLoop.ran,DecisionTrialLoop.order,Confidence_Delta,Confidence_resp,ConfidenceLoop.thisRepN,ConfidenceLoop.thisTrialN,ConfidenceLoop.thisN,ConfidenceLoop.thisIndex,ConfidenceLoop.ran,ConfidenceLoop.order
Chrome,1366,657,1,1,120,100,45,1200,600,60,1,300,Agreed,3,0,3,0,1,2,5f1d879edef5136a796ed7a2,22,Female,2020-07-27_11h48.51.277,AvatarAutomaticProl,3.2.2,Win32,60,5f1d879edef5136a796ed7a2,5f1b026ff9f4e82811599350,5f1eb0e92c3f7200088cdf3e,,,,,,,,,,,,,,,,,,,,,,,,,,,,,,,,,,,,,,,,,,,,,,,,,,,,,,
,,,,,,,,,,,,,Agreed,3,0,3,0,1,2,5f1d879edef5136a796ed7a2,22,Female,2020-07-27_11h48.51.277,AvatarAutomaticProl,3.2.2,Win32,60,5f1d879edef5136a796ed7a2,5f1b026ff9f4e82811599350,5f1eb0e92c3f7200088cdf3e,,,,,,,,,,,,,,,,,,,,,,,,,,,,,,,,,,,,,,,,,,,,,,,,,,,,,,
,,,,,,,,,,,,,Agreed,3,0,3,0,1,2,5f1d879edef5136a796ed7a2,22,Female,2020-07-27_11h48.51.277,AvatarAutomaticProl,3.2.2,Win32,60,5f1d879edef5136a796ed7a2,5f1b026ff9f4e82811599350,5f1eb0e92c3f7200088cdf3e,,,,,,,,,,,,,,,,,,,,,,,,,,,,,,,,,,,,,,,,,,,,,,,,,,,,,,
,,,,,,,,,,,,,,,,,,,,5f1d879edef5136a796ed7a2,22,Female,2020-07-27_11h48.51.277,AvatarAutomaticProl,3.2.2,Win32,60,5f1d879edef5136a796ed7a2,5f1b026ff9f4e82811599350,5f1eb0e92c3f7200088cdf3e,const,400,-300,0,68,3.5,0,[],[],250.5,-248.5,-15.5,7894,1,0,1,0,1,0,48,0,48,0,1,47,,,,,,,,,,,,,,,,,,,,,,,,,,,,,
,,,,,,,,,,,,,,,,,,,,5f1d879edef5136a796ed7a2,22,Female,2020-07-27_11h48.51.277,AvatarAutomaticProl,3.2.2,Win32,60,5f1d879edef5136a796ed7a2,5f1b026ff9f4e82811599350,5f1eb0e92c3f7200088cdf3e,,400,-300,0,96,3.5,1,[],[],250.5,-259,12.5,8692,1,0,1,0,1,0,48,0,48,0,1,47,,,,,,,,,,,,,,,,,,,,,,,,,,,,,
,,,,,,,,,,,,,,,,,,,,5f1d879edef5136a796ed7a2,22,Female,2020-07-27_11h48.51.277,AvatarAutomaticProl,3.2.2,Win32,60,5f1d879edef5136a796ed7a2,5f1b026ff9f4e82811599350,5f1eb0e92c3f7200088cdf3e,,500,-400,0,138,3.5,0,[],[],417.5,-234.5,5.5,7670,1,0,1,0,1,0,48,0,48,0,1,47,,,,,,,,,,,,,,,,,,,,,,,,,,,,,
,,,,,,,,,,,,,,,,,,,,5f1d879edef5136a796ed7a2,22,Female,2020-07-27_11h48.51.277,AvatarAutomaticProl,3.2.2,Win32,60,5f1d879edef5136a796ed7a2,5f1b026ff9f4e82811599350,5f1eb0e92c3f7200088cdf3e,,300,-200,0,119,3.5,1,[],[],233.8,-157.5,-5,5541,1,0,1,0,1,0,48,0,48,0,1,47,,,,,,,,,,,,,,,,,,,,,,,,,,,,,
,,,,,,,,,,,,,,,,,,,,5f1d879edef5136a796ed7a2,22,Female,2020-07-27_11h48.51.277,AvatarAutomaticProl,3.2.2,Win32,60,5f1d879edef5136a796ed7a2,5f1b026ff9f4e82811599350,5f1eb0e92c3f7200088cdf3e,,200,100,0,89,3.5,1,[],[],217.1,56,9,5490,1,0,1,0,1,0,48,0,48,0,1,47,,,,,,,,,,,,,,,,,,,,,,,,,,,,,
,,,,,,,,,,,,,,,,,,,,5f1d879edef5136a796ed7a2,22,Female,2020-07-27_11h48.51.277,AvatarAutomaticProl,3.2.2,Win32,60,5f1d879edef5136a796ed7a2,5f1b026ff9f4e82811599350,5f1eb0e92c3f7200088cdf3e,,200,100,0,120,3.5,1,[],[],434.2,56,-1.5,5057,1,0,1,0,1,0,48,0,48,0,1,47,,,,,,,,,,,,,,,,,,,,,,,,,,,,,
,,,,,,,,,,,,,,,,,,,,5f1d879edef5136a796ed7a2,22,Female,2020-07-27_11h48.51.277,AvatarAutomaticProl,3.2.2,Win32,60,5f1d879edef5136a796ed7a2,5f1b026ff9f4e82811599350,5f1eb0e92c3f7200088cdf3e,,200,100,0,85,3.5,1,[],[],384.1,56,2,4425,1,0,1,0,1,0,48,0,48,0,1,47,,,,,,,,,,,,,,,,,,,,,,,,,,,,,
,,,,,,,,,,,,,,,,,,,,5f1d879edef5136a796ed7a2,22,Female,2020-07-27_11h48.51.277,AvatarAutomaticProl,3.2.2,Win32,60,5f1d879edef5136a796ed7a2,5f1b026ff9f4e82811599350,5f1eb0e92c3f7200088cdf3e,,500,400,0,144,3.5,0,[],[],350.7,255.5,16,6839,1,0,1,0,1,0,48,0,48,0,1,47,,,,,,,,,,,,,,,,,,,,,,,,,,,,,
,,,,,,,,,,,,,,,,,,,,5f1d879edef5136a796ed7a2,22,Female,2020-07-27_11h48.51.277,AvatarAutomaticProl,3.2.2,Win32,60,5f1d879edef5136a796ed7a2,5f1b026ff9f4e82811599350,5f1eb0e92c3f7200088cdf3e,,300,200,0,68,3.5,1,[],[],417.5,157.5,-5,4562,1,0,1,0,1,0,48,0,48,0,1,47,,,,,,,,,,,,,,,,,,,,,,,,,,,,,
,,,,,,,,,,,,,,,,,,,,5f1d879edef5136a796ed7a2,22,Female,2020-07-27_11h48.51.277,AvatarAutomaticProl,3.2.2,Win32,60,5f1d879edef5136a796ed7a2,5f1b026ff9f4e82811599350,5f1eb0e92c3f7200088cdf3e,,400,-300,0,102,3.5,1,[],[],334,-262.5,19.5,5779,1,0,1,0,1,0,48,0,48,0,1,47,,,,,,,,,,,,,,,,,,,,,,,,,,,,,
,,,,,,,,,,,,,,,,,,,,5f1d879edef5136a796ed7a2,22,Female,2020-07-27_11h48.51.277,AvatarAutomaticProl,3.2.2,Win32,60,5f1d879edef5136a796ed7a2,5f1b026ff9f4e82811599350,5f1eb0e92c3f7200088cdf3e,,300,-200,0,126,3.5,1,[],[],300.6,-157.5,2,5516,1,0,1,0,1,0,48,0,48,0,1,47,,,,,,,,,,,,,,,,,,,,,,,,,,,,,
,,,,,,,,,,,,,,,,,,,,5f1d879edef5136a796ed7a2,22,Female,2020-07-27_11h48.51.277,AvatarAutomaticProl,3.2.2,Win32,60,5f1d879edef5136a796ed7a2,5f1b026ff9f4e82811599350,5f1eb0e92c3f7200088cdf3e,,500,-400,0,124,3.5,0,[],[],250.5,-252,2,6675,1,0,1,0,1,0,48,0,48,0,1,47,,,,,,,,,,,,,,,,,,,,,,,,,,,,,
,,,,,,,,,,,,,,,,,,,,5f1d879edef5136a796ed7a2,22,Female,2020-07-27_11h48.51.277,AvatarAutomaticProl,3.2.2,Win32,60,5f1d879edef5136a796ed7a2,5f1b026ff9f4e82811599350,5f1eb0e92c3f7200088cdf3e,,500,400,0,78,3.5,0,[],[],233.8,262.5,-1.5,6882,1,0,1,0,1,0,48,0,48,0,1,47,,,,,,,,,,,,,,,,,,,,,,,,,,,,,
,,,,,,,,,,,,,,,,,,,,5f1d879edef5136a796ed7a2,22,Female,2020-07-27_11h48.51.277,AvatarAutomaticProl,3.2.2,Win32,60,5f1d879edef5136a796ed7a2,5f1b026ff9f4e82811599350,5f1eb0e92c3f7200088cdf3e,,500,-400,0,112,3.5,0,[],[],367.4,-241.5,5.5,5364,1,0,1,0,1,0,48,0,48,0,1,47,,,,,,,,,,,,,,,,,,,,,,,,,,,,,
,,,,,,,,,,,,,,,,,,,,5f1d879edef5136a796ed7a2,22,Female,2020-07-27_11h48.51.277,AvatarAutomaticProl,3.2.2,Win32,60,5f1d879edef5136a796ed7a2,5f1b026ff9f4e82811599350,5f1eb0e92c3f7200088cdf3e,,500,-400,0,70,3.5,0,[],[],317.3,-245,19.5,4835,1,0,1,0,1,0,48,0,48,0,1,47,,,,,,,,,,,,,,,,,,,,,,,,,,,,,
,,,,,,,,,,,,,,,,,,,,5f1d879edef5136a796ed7a2,22,Female,2020-07-27_11h48.51.277,AvatarAutomaticProl,3.2.2,Win32,60,5f1d879edef5136a796ed7a2,5f1b026ff9f4e82811599350,5f1eb0e92c3f7200088cdf3e,,300,200,0,137,3.5,1,[],[],434.2,157.5,2,5414,1,0,1,0,1,0,48,0,48,0,1,47,,,,,,,,,,,,,,,,,,,,,,,,,,,,,
,,,,,,,,,,,,,,,,,,,,5f1d879edef5136a796ed7a2,22,Female,2020-07-27_11h48.51.277,AvatarAutomaticProl,3.2.2,Win32,60,5f1d879edef5136a796ed7a2,5f1b026ff9f4e82811599350,5f1eb0e92c3f7200088cdf3e,,200,100,0,118,3.5,1,[],[],250.5,56,-1.5,5070,1,0,1,0,1,0,48,0,48,0,1,47,,,,,,,,,,,,,,,,,,,,,,,,,,,,,
,,,,,,,,,,,,,,,,,,,,5f1d879edef5136a796ed7a2,22,Female,2020-07-27_11h48.51.277,AvatarAutomaticProl,3.2.2,Win32,60,5f1d879edef5136a796ed7a2,5f1b026ff9f4e82811599350,5f1eb0e92c3f7200088cdf3e,,200,100,0,119,3.5,1,[],[],283.9,56,-1.5,4533,1,0,1,0,1,0,48,0,48,0,1,47,,,,,,,,,,,,,,,,,,,,,,,,,,,,,
,,,,,,,,,,,,,,,,,,,,5f1d879edef5136a796ed7a2,22,Female,2020-07-27_11h48.51.277,AvatarAutomaticProl,3.2.2,Win32,60,5f1d879edef5136a796ed7a2,5f1b026ff9f4e82811599350,5f1eb0e92c3f7200088cdf3e,,400,300,0,71,3.5,0,[],[],384.1,210,-1.5,4865,1,0,1,0,1,0,48,0,48,0,1,47,,,,,,,,,,,,,,,,,,,,,,,,,,,,,
,,,,,,,,,,,,,,,,,,,,5f1d879edef5136a796ed7a2,22,Female,2020-07-27_11h48.51.277,AvatarAutomaticProl,3.2.2,Win32,60,5f1d879edef5136a796ed7a2,5f1b026ff9f4e82811599350,5f1eb0e92c3f7200088cdf3e,,200,-100,0,121,3.5,1,[],[],467.6,-59.5,-12,7072,1,0,1,0,1,0,48,0,48,0,1,47,,,,,,,,,,,,,,,,,,,,,,,,,,,,,
,,,,,,,,,,,,,,,,,,,,5f1d879edef5136a796ed7a2,22,Female,2020-07-27_11h48.51.277,AvatarAutomaticProl,3.2.2,Win32,60,5f1d879edef5136a796ed7a2,5f1b026ff9f4e82811599350,5f1eb0e92c3f7200088cdf3e,,400,300,0,93,3.5,0,[],[],217.1,238,-5,5803,1,0,1,0,1,0,48,0,48,0,1,47,,,,,,,,,,,,,,,,,,,,,,,,,,,,,
,,,,,,,,,,,,,,,,,,,,5f1d879edef5136a796ed7a2,22,Female,2020-07-27_11h48.51.277,AvatarAutomaticProl,3.2.2,Win32,60,5f1d879edef5136a796ed7a2,5f1b026ff9f4e82811599350,5f1eb0e92c3f7200088cdf3e,,300,200,0,113,3.5,1,[],[],334,161,-15.5,4957,1,0,1,0,1,0,48,0,48,0,1,47,,,,,,,,,,,,,,,,,,,,,,,,,,,,,
,,,,,,,,,,,,,,,,,,,,5f1d879edef5136a796ed7a2,22,Female,2020-07-27_11h48.51.277,AvatarAutomaticProl,3.2.2,Win32,60,5f1d879edef5136a796ed7a2,5f1b026ff9f4e82811599350,5f1eb0e92c3f7200088cdf3e,,300,200,0,109,3.5,1,[],[],400.8,161,16,5354,1,0,1,0,1,0,48,0,48,0,1,47,,,,,,,,,,,,,,,,,,,,,,,,,,,,,
,,,,,,,,,,,,,,,,,,,,5f1d879edef5136a796ed7a2,22,Female,2020-07-27_11h48.51.277,AvatarAutomaticProl,3.2.2,Win32,60,5f1d879edef5136a796ed7a2,5f1b026ff9f4e82811599350,5f1eb0e92c3f7200088cdf3e,,300,200,0,108,3.5,1,[],[],367.4,161,19.5,5130,1,0,1,0,1,0,48,0,48,0,1,47,,,,,,,,,,,,,,,,,,,,,,,,,,,,,
,,,,,,,,,,,,,,,,,,,,5f1d879edef5136a796ed7a2,22,Female,2020-07-27_11h48.51.277,AvatarAutomaticProl,3.2.2,Win32,60,5f1d879edef5136a796ed7a2,5f1b026ff9f4e82811599350,5f1eb0e92c3f7200088cdf3e,,400,300,0,78,3.5,0,[],[],283.9,241.5,26.5,5003,1,0,1,0,1,0,48,0,48,0,1,47,,,,,,,,,,,,,,,,,,,,,,,,,,,,,
,,,,,,,,,,,,,,,,,,,,5f1d879edef5136a796ed7a2,22,Female,2020-07-27_11h48.51.277,AvatarAutomaticProl,3.2.2,Win32,60,5f1d879edef5136a796ed7a2,5f1b026ff9f4e82811599350,5f1eb0e92c3f7200088cdf3e,,200,-100,0,92,3.5,1,[],[],267.2,-56,-8.5,4367,1,0,1,0,1,0,48,0,48,0,1,47,,,,,,,,,,,,,,,,,,,,,,,,,,,,,
,,,,,,,,,,,,,,,,,,,,5f1d879edef5136a796ed7a2,22,Female,2020-07-27_11h48.51.277,AvatarAutomaticProl,3.2.2,Win32,60,5f1d879edef5136a796ed7a2,5f1b026ff9f4e82811599350,5f1eb0e92c3f7200088cdf3e,,400,300,0,81,3.5,0,[],[],384.1,259,23,4756,1,0,1,0,1,0,48,0,48,0,1,47,,,,,,,,,,,,,,,,,,,,,,,,,,,,,
,,,,,,,,,,,,,,,,,,,,5f1d879edef5136a796ed7a2,22,Female,2020-07-27_11h48.51.277,AvatarAutomaticProl,3.2.2,Win32,60,5f1d879edef5136a796ed7a2,5f1b026ff9f4e82811599350,5f1eb0e92c3f7200088cdf3e,,200,-100,0,113,3.5,1,[],[],300.6,-56,5.5,4860,1,0,1,0,1,0,48,0,48,0,1,47,,,,,,,,,,,,,,,,,,,,,,,,,,,,,
,,,,,,,,,,,,,,,,,,,,5f1d879edef5136a796ed7a2,22,Female,2020-07-27_11h48.51.277,AvatarAutomaticProl,3.2.2,Win32,60,5f1d879edef5136a796ed7a2,5f1b026ff9f4e82811599350,5f1eb0e92c3f7200088cdf3e,,500,-400,0,61,3.5,0,[],[],250.5,-269.5,5.5,6312,1,0,1,0,1,0,48,0,48,0,1,47,,,,,,,,,,,,,,,,,,,,,,,,,,,,,
,,,,,,,,,,,,,,,,,,,,5f1d879edef5136a796ed7a2,22,Female,2020-07-27_11h48.51.277,AvatarAutomaticProl,3.2.2,Win32,60,5f1d879edef5136a796ed7a2,5f1b026ff9f4e82811599350,5f1eb0e92c3f7200088cdf3e,,400,300,0,64,3.5,1,[],[],300.6,259,12.5,4436,1,0,1,0,1,0,48,0,48,0,1,47,,,,,,,,,,,,,,,,,,,,,,,,,,,,,
,,,,,,,,,,,,,,,,,,,,5f1d879edef5136a796ed7a2,22,Female,2020-07-27_11h48.51.277,AvatarAutomaticProl,3.2.2,Win32,60,5f1d879edef5136a796ed7a2,5f1b026ff9f4e82811599350,5f1eb0e92c3f7200088cdf3e,,500,-400,0,128,3.5,0,[],[],250.5,-224,-33,6029,1,0,1,0,1,0,48,0,48,0,1,47,,,,,,,,,,,,,,,,,,,,,,,,,,,,,
,,,,,,,,,,,,,,,,,,,,5f1d879edef5136a796ed7a2,22,Female,2020-07-27_11h48.51.277,AvatarAutomaticProl,3.2.2,Win32,60,5f1d879edef5136a796ed7a2,5f1b026ff9f4e82811599350,5f1eb0e92c3f7200088cdf3e,,200,100,0,102,3.5,1,[],[],267.2,56,2,4681,1,0,1,0,1,0,48,0,48,0,1,47,,,,,,,,,,,,,,,,,,,,,,,,,,,,,
,,,,,,,,,,,,,,,,,,,,5f1d879edef5136a796ed7a2,22,Female,2020-07-27_11h48.51.277,AvatarAutomaticProl,3.2.2,Win32,60,5f1d879edef5136a796ed7a2,5f1b026ff9f4e82811599350,5f1eb0e92c3f7200088cdf3e,,400,-300,0,92,3.5,1,[],[],317.3,-262.5,19.5,4997,1,0,1,0,1,0,48,0,48,0,1,47,,,,,,,,,,,,,,,,,,,,,,,,,,,,,
,,,,,,,,,,,,,,,,,,,,5f1d879edef5136a796ed7a2,22,Female,2020-07-27_11h48.51.277,AvatarAutomaticProl,3.2.2,Win32,60,5f1d879edef5136a796ed7a2,5f1b026ff9f4e82811599350,5f1eb0e92c3f7200088cdf3e,,400,300,0,143,3.5,1,[],[],267.2,259,16,5522,1,0,1,0,1,0,48,0,48,0,1,47,,,,,,,,,,,,,,,,,,,,,,,,,,,,,
,,,,,,,,,,,,,,,,,,,,5f1d879edef5136a796ed7a2,22,Female,2020-07-27_11h48.51.277,AvatarAutomaticProl,3.2.2,Win32,60,5f1d879edef5136a796ed7a2,5f1b026ff9f4e82811599350,5f1eb0e92c3f7200088cdf3e,,400,-300,0,119,3.5,0,[],[],668,-168,-8.5,6466,1,0,1,0,1,0,48,0,48,0,1,47,,,,,,,,,,,,,,,,,,,,,,,,,,,,,
,,,,,,,,,,,,,,,,,,,,5f1d879edef5136a796ed7a2,22,Female,2020-07-27_11h48.51.277,AvatarAutomaticProl,3.2.2,Win32,60,5f1d879edef5136a796ed7a2,5f1b026ff9f4e82811599350,5f1eb0e92c3f7200088cdf3e,,500,400,0,104,3.5,0,[],[],601.2,171.5,-15.5,5087,1,0,1,0,1,0,48,0,48,0,1,47,,,,,,,,,,,,,,,,,,,,,,,,,,,,,
,,,,,,,,,,,,,,,,,,,,5f1d879edef5136a796ed7a2,22,Female,2020-07-27_11h48.51.277,AvatarAutomaticProl,3.2.2,Win32,60,5f1d879edef5136a796ed7a2,5f1b026ff9f4e82811599350,5f1eb0e92c3f7200088cdf3e,,500,-400,0,133,3.5,0,[],[],217.1,-280,12.5,5654,1,0,1,0,1,0,48,0,48,0,1,47,,,,,,,,,,,,,,,,,,,,,,,,,,,,,
,,,,,,,,,,,,,,,,,,,,5f1d879edef5136a796ed7a2,22,Female,2020-07-27_11h48.51.277,AvatarAutomaticProl,3.2.2,Win32,60,5f1d879edef5136a796ed7a2,5f1b026ff9f4e82811599350,5f1eb0e92c3f7200088cdf3e,,300,-200,0,113,3.5,1,[],[],250.5,-157.5,5.5,6394,1,0,1,0,1,0,48,0,48,0,1,47,,,,,,,,,,,,,,,,,,,,,,,,,,,,,
,,,,,,,,,,,,,,,,,,,,5f1d879edef5136a796ed7a2,22,Female,2020-07-27_11h48.51.277,AvatarAutomaticProl,3.2.2,Win32,60,5f1d879edef5136a796ed7a2,5f1b026ff9f4e82811599350,5f1eb0e92c3f7200088cdf3e,,500,400,0,82,3.5,0,[],[],200.4,224,-12,5159,1,0,1,0,1,0,48,0,48,0,1,47,,,,,,,,,,,,,,,,,,,,,,,,,,,,,
,,,,,,,,,,,,,,,,,,,,5f1d879edef5136a796ed7a2,22,Female,2020-07-27_11h48.51.277,AvatarAutomaticProl,3.2.2,Win32,60,5f1d879edef5136a796ed7a2,5f1b026ff9f4e82811599350,5f1eb0e92c3f7200088cdf3e,,200,-100,0,68,3.5,1,[],[],217.1,-56,9,3753,1,0,1,0,1,0,48,0,48,0,1,47,,,,,,,,,,,,,,,,,,,,,,,,,,,,,
,,,,,,,,,,,,,,,,,,,,5f1d879edef5136a796ed7a2,22,Female,2020-07-27_11h48.51.277,AvatarAutomaticProl,3.2.2,Win32,60,5f1d879edef5136a796ed7a2,5f1b026ff9f4e82811599350,5f1eb0e92c3f7200088cdf3e,,300,200,0,111,3.5,1,[],[],384.1,157.5,12.5,6595,1,0,1,0,1,0,48,0,48,0,1,47,,,,,,,,,,,,,,,,,,,,,,,,,,,,,
,,,,,,,,,,,,,,,,,,,,5f1d879edef5136a796ed7a2,22,Female,2020-07-27_11h48.51.277,AvatarAutomaticProl,3.2.2,Win32,60,5f1d879edef5136a796ed7a2,5f1b026ff9f4e82811599350,5f1eb0e92c3f7200088cdf3e,,300,200,0,71,3.5,1,[],[],250.5,157.5,5.5,4481,1,0,1,0,1,0,48,0,48,0,1,47,,,,,,,,,,,,,,,,,,,,,,,,,,,,,
,,,,,,,,,,,,,,,,,,,,5f1d879edef5136a796ed7a2,22,Female,2020-07-27_11h48.51.277,AvatarAutomaticProl,3.2.2,Win32,60,5f1d879edef5136a796ed7a2,5f1b026ff9f4e82811599350,5f1eb0e92c3f7200088cdf3e,,400,300,0,102,3.5,0,[],[],300.6,238,-12,5633,1,0,1,0,1,0,48,0,48,0,1,47,,,,,,,,,,,,,,,,,,,,,,,,,,,,,
,,,,,,,,,,,,,,,,,,,,5f1d879edef5136a796ed7a2,22,Female,2020-07-27_11h48.51.277,AvatarAutomaticProl,3.2.2,Win32,60,5f1d879edef5136a796ed7a2,5f1b026ff9f4e82811599350,5f1eb0e92c3f7200088cdf3e,,200,-100,0,141,3.5,1,[],[],334,-59.5,-15.5,5233,1,0,1,0,1,0,48,0,48,0,1,47,,,,,,,,,,,,,,,,,,,,,,,,,,,,,
,,,,,,,,,,,,,,,,,,,,5f1d879edef5136a796ed7a2,22,Female,2020-07-27_11h48.51.277,AvatarAutomaticProl,3.2.2,Win32,60,5f1d879edef5136a796ed7a2,5f1b026ff9f4e82811599350,5f1eb0e92c3f7200088cdf3e,,300,-200,0,122,3.5,1,[],[],267.2,-157.5,-8.5,6578,1,0,1,0,1,0,48,0,48,0,1,47,,,,,,,,,,,,,,,,,,,,,,,,,,,,,
,,,,,,,,,,,,,,,,,,,,5f1d879edef5136a796ed7a2,22,Female,2020-07-27_11h48.51.277,AvatarAutomaticProl,3.2.2,Win32,60,5f1d879edef5136a796ed7a2,5f1b026ff9f4e82811599350,5f1eb0e92c3f7200088cdf3e,,500,400,0,95,3.5,0,[],[],300.6,220.5,-12,4813,1,0,1,0,1,0,48,0,48,0,1,47,,,,,,,,,,,,,,,,,,,,,,,,,,,,,
,,,,,,,,,,,,,,,,,,,,5f1d879edef5136a796ed7a2,22,Female,2020-07-27_11h48.51.277,AvatarAutomaticProl,3.2.2,Win32,60,5f1d879edef5136a796ed7a2,5f1b026ff9f4e82811599350,5f1eb0e92c3f7200088cdf3e,,200,100,0,67,3.5,1,[],[],250.5,56,5.5,3953,1,0,1,0,1,0,48,0,48,0,1,47,,,,,,,,,,,,,,,,,,,,,,,,,,,,,
,,,,,,,,,,,,,,,,,,,,5f1d879edef5136a796ed7a2,22,Female,2020-07-27_11h48.51.277,AvatarAutomaticProl,3.2.2,Win32,60,5f1d879edef5136a796ed7a2,5f1b026ff9f4e82811599350,5f1eb0e92c3f7200088cdf3e,,300,-200,0,121,3.5,1,[],[],300.6,-157.5,2,6011,1,0,1,0,1,0,48,0,48,0,1,47,,,,,,,,,,,,,,,,,,,,,,,,,,,,,
,,,,,,,,,,,,,,,,,,,,5f1d879edef5136a796ed7a2,22,Female,2020-07-27_11h48.51.277,AvatarAutomaticProl,3.2.2,Win32,60,5f1d879edef5136a796ed7a2,5f1b026ff9f4e82811599350,5f1eb0e92c3f7200088cdf3e,,,,,,,,,,,,,7949,1,0,1,0,1,0,,,,,,,300,200,0,const,3.5,80,right,183,-83,[],[],384.1,183,40.5,1,40,0,40,0,1,39,,,,,,,,
,,,,,,,,,,,,,,,,,,,,5f1d879edef5136a796ed7a2,22,Female,2020-07-27_11h48.51.277,AvatarAutomaticProl,3.2.2,Win32,60,5f1d879edef5136a796ed7a2,5f1b026ff9f4e82811599350,5f1eb0e92c3f7200088cdf3e,,,,,,,,,,,,,7165,1,0,1,0,1,0,,,,,,,200,100,0,const,3.5,96,right,12,-40,[],[],200.4,61,-15.5,1,40,0,40,0,1,39,,,,,,,,
,,,,,,,,,,,,,,,,,,,,5f1d879edef5136a796ed7a2,22,Female,2020-07-27_11h48.51.277,AvatarAutomaticProl,3.2.2,Win32,60,5f1d879edef5136a796ed7a2,5f1b026ff9f4e82811599350,5f1eb0e92c3f7200088cdf3e,,,,,,,,,,,,,8131,1,0,1,0,1,0,,,,,,,500,400,0,const,3.5,96,right,-213,34,[],[],233.8,-13.5,-22.5,0,40,0,40,0,1,39,,,,,,,,
,,,,,,,,,,,,,,,,,,,,5f1d879edef5136a796ed7a2,22,Female,2020-07-27_11h48.51.277,AvatarAutomaticProl,3.2.2,Win32,60,5f1d879edef5136a796ed7a2,5f1b026ff9f4e82811599350,5f1eb0e92c3f7200088cdf3e,,,,,,,,,,,,,7647,1,0,1,0,1,0,,,,,,,400,300,0,const,3.5,111,right,-7,31,[],[],400.8,192.5,-8.5,0,40,0,40,0,1,39,,,,,,,,
,,,,,,,,,,,,,,,,,,,,5f1d879edef5136a796ed7a2,22,Female,2020-07-27_11h48.51.277,AvatarAutomaticProl,3.2.2,Win32,60,5f1d879edef5136a796ed7a2,5f1b026ff9f4e82811599350,5f1eb0e92c3f7200088cdf3e,,,,,,,,,,,,,7266,1,0,1,0,1,0,,,,,,,200,100,0,const,3.5,109,left,6,-15,[],[],400.8,-57,12.5,1,40,0,40,0,1,39,,,,,,,,
,,,,,,,,,,,,,,,,,,,,5f1d879edef5136a796ed7a2,22,Female,2020-07-27_11h48.51.277,AvatarAutomaticProl,3.2.2,Win32,60,5f1d879edef5136a796ed7a2,5f1b026ff9f4e82811599350,5f1eb0e92c3f7200088cdf3e,,,,,,,,,,,,,7987,1,0,1,0,1,0,,,,,,,500,400,0,const,3.5,107,left,16,103,[],[],367.4,-208,2,0,40,0,40,0,1,39,,,,,,,,
,,,,,,,,,,,,,,,,,,,,5f1d879edef5136a796ed7a2,22,Female,2020-07-27_11h48.51.277,AvatarAutomaticProl,3.2.2,Win32,60,5f1d879edef5136a796ed7a2,5f1b026ff9f4e82811599350,5f1eb0e92c3f7200088cdf3e,,,,,,,,,,,,,6377,1,0,1,0,1,0,,,,,,,200,100,0,const,3.5,60,right,12,22,[],[],384.1,61,-15.5,1,40,0,40,0,1,39,,,,,,,,
,,,,,,,,,,,,,,,,,,,,5f1d879edef5136a796ed7a2,22,Female,2020-07-27_11h48.51.277,AvatarAutomaticProl,3.2.2,Win32,60,5f1d879edef5136a796ed7a2,5f1b026ff9f4e82811599350,5f1eb0e92c3f7200088cdf3e,,,,,,,,,,,,,8009,1,0,1,0,1,0,,,,,,,300,200,0,const,3.5,115,right,-15,-18,[],[],450.9,156.5,-1.5,1,40,0,40,0,1,39,,,,,,,,
,,,,,,,,,,,,,,,,,,,,5f1d879edef5136a796ed7a2,22,Female,2020-07-27_11h48.51.277,AvatarAutomaticProl,3.2.2,Win32,60,5f1d879edef5136a796ed7a2,5f1b026ff9f4e82811599350,5f1eb0e92c3f7200088cdf3e,,,,,,,,,,,,,8657,1,0,1,0,1,0,,,,,,,500,400,0,const,3.5,105,left,-156,32,[],[],233.8,-359,9,1,40,0,40,0,1,39,,,,,,,,
,,,,,,,,,,,,,,,,,,,,5f1d879edef5136a796ed7a2,22,Female,2020-07-27_11h48.51.277,AvatarAutomaticProl,3.2.2,Win32,60,5f1d879edef5136a796ed7a2,5f1b026ff9f4e82811599350,5f1eb0e92c3f7200088cdf3e,,,,,,,,,,,,,8891,1,0,1,0,1,0,,,,,,,300,200,0,const,3.5,140,left,14,-40,[],[],267.2,-157.5,12.5,1,40,0,40,0,1,39,,,,,,,,
,,,,,,,,,,,,,,,,,,,,5f1d879edef5136a796ed7a2,22,Female,2020-07-27_11h48.51.277,AvatarAutomaticProl,3.2.2,Win32,60,5f1d879edef5136a796ed7a2,5f1b026ff9f4e82811599350,5f1eb0e92c3f7200088cdf3e,,,,,,,,,,,,,8195,1,0,1,0,1,0,,,,,,,200,100,0,const,3.5,139,right,-4,-27,[],[],417.5,73,33.5,1,40,0,40,0,1,39,,,,,,,,
,,,,,,,,,,,,,,,,,,,,5f1d879edef5136a796ed7a2,22,Female,2020-07-27_11h48.51.277,AvatarAutomaticProl,3.2.2,Win32,60,5f1d879edef5136a796ed7a2,5f1b026ff9f4e82811599350,5f1eb0e92c3f7200088cdf3e,,,,,,,,,,,,,10040,1,0,1,0,1,0,,,,,,,500,400,0,const,3.5,105,right,-98,-82,[],[],283.9,161,5.5,0,40,0,40,0,1,39,,,,,,,,
,,,,,,,,,,,,,,,,,,,,5f1d879edef5136a796ed7a2,22,Female,2020-07-27_11h48.51.277,AvatarAutomaticProl,3.2.2,Win32,60,5f1d879edef5136a796ed7a2,5f1b026ff9f4e82811599350,5f1eb0e92c3f7200088cdf3e,,,,,,,,,,,,,9126,1,0,1,0,1,0,,,,,,,400,300,0,const,3.5,111,left,-10,-62,[],[],384.1,-181.5,16,0,40,0,40,0,1,39,,,,,,,,
,,,,,,,,,,,,,,,,,,,,5f1d879edef5136a796ed7a2,22,Female,2020-07-27_11h48.51.277,AvatarAutomaticProl,3.2.2,Win32,60,5f1d879edef5136a796ed7a2,5f1b026ff9f4e82811599350,5f1eb0e92c3f7200088cdf3e,,,,,,,,,,,,,6276,1,0,1,0,1,0,,,,,,,200,100,0,const,3.5,79,right,8,-26,[],[],434.2,57,12.5,1,40,0,40,0,1,39,,,,,,,,
,,,,,,,,,,,,,,,,,,,,5f1d879edef5136a796ed7a2,22,Female,2020-07-27_11h48.51.277,AvatarAutomaticProl,3.2.2,Win32,60,5f1d879edef5136a796ed7a2,5f1b026ff9f4e82811599350,5f1eb0e92c3f7200088cdf3e,,,,,,,,,,,,,7902,1,0,1,0,1,0,,,,,,,400,300,0,const,3.5,69,left,-38,14,[],[],484.3,-38,-19,0,40,0,40,0,1,39,,,,,,,,
,,,,,,,,,,,,,,,,,,,,5f1d879edef5136a796ed7a2,22,Female,2020-07-27_11h48.51.277,AvatarAutomaticProl,3.2.2,Win32,60,5f1d879edef5136a796ed7a2,5f1b026ff9f4e82811599350,5f1eb0e92c3f7200088cdf3e,,,,,,,,,,,,,8250,1,0,1,0,1,0,,,,,,,500,400,0,const,3.5,124,left,-253,32,[],[],1018.7,-358,16,1,40,0,40,0,1,39,,,,,,,,
,,,,,,,,,,,,,,,,,,,,5f1d879edef5136a796ed7a2,22,Female,2020-07-27_11h48.51.277,AvatarAutomaticProl,3.2.2,Win32,60,5f1d879edef5136a796ed7a2,5f1b026ff9f4e82811599350,5f1eb0e92c3f7200088cdf3e,,,,,,,,,,,,,8128,1,0,1,0,1,0,,,,,,,300,200,0,const,3.5,150,right,14,-14,[],[],501,157.5,5.5,1,40,0,40,0,1,39,,,,,,,,
,,,,,,,,,,,,,,,,,,,,5f1d879edef5136a796ed7a2,22,Female,2020-07-27_11h48.51.277,AvatarAutomaticProl,3.2.2,Win32,60,5f1d879edef5136a796ed7a2,5f1b026ff9f4e82811599350,5f1eb0e92c3f7200088cdf3e,,,,,,,,,,,,,9958,1,0,1,0,1,0,,,,,,,300,200,0,const,3.5,74,right,4,30,[],[],300.6,158,2,1,40,0,40,0,1,39,,,,,,,,
,,,,,,,,,,,,,,,,,,,,5f1d879edef5136a796ed7a2,22,Female,2020-07-27_11h48.51.277,AvatarAutomaticProl,3.2.2,Win32,60,5f1d879edef5136a796ed7a2,5f1b026ff9f4e82811599350,5f1eb0e92c3f7200088cdf3e,,,,,,,,,,,,,7765,1,0,1,0,1,0,,,,,,,500,400,0,const,3.5,136,left,-189,176,[],[],283.9,-357,2,1,40,0,40,0,1,39,,,,,,,,
,,,,,,,,,,,,,,,,,,,,5f1d879edef5136a796ed7a2,22,Female,2020-07-27_11h48.51.277,AvatarAutomaticProl,3.2.2,Win32,60,5f1d879edef5136a796ed7a2,5f1b026ff9f4e82811599350,5f1eb0e92c3f7200088cdf3e,,,,,,,,,,,,,8812,1,0,1,0,1,0,,,,,,,500,400,0,const,3.5,118,right,-128,-137,[],[],484.3,103,19.5,0,40,0,40,0,1,39,,,,,,,,
,,,,,,,,,,,,,,,,,,,,5f1d879edef5136a796ed7a2,22,Female,2020-07-27_11h48.51.277,AvatarAutomaticProl,3.2.2,Win32,60,5f1d879edef5136a796ed7a2,5f1b026ff9f4e82811599350,5f1eb0e92c3f7200088cdf3e,,,,,,,,,,,,,8078,1,0,1,0,1,0,,,,,,,300,200,0,const,3.5,91,right,3,35,[],[],183.7,157,-1.5,1,40,0,40,0,1,39,,,,,,,,
,,,,,,,,,,,,,,,,,,,,5f1d879edef5136a796ed7a2,22,Female,2020-07-27_11h48.51.277,AvatarAutomaticProl,3.2.2,Win32,60,5f1d879edef5136a796ed7a2,5f1b026ff9f4e82811599350,5f1eb0e92c3f7200088cdf3e,,,,,,,,,,,,,11802,1,0,1,0,1,0,,,,,,,400,300,0,const,3.5,140,right,-102,68,[],[],484.3,-102,12.5,0,40,0,40,0,1,39,,,,,,,,
,,,,,,,,,,,,,,,,,,,,5f1d879edef5136a796ed7a2,22,Female,2020-07-27_11h48.51.277,AvatarAutomaticProl,3.2.2,Win32,60,5f1d879edef5136a796ed7a2,5f1b026ff9f4e82811599350,5f1eb0e92c3f7200088cdf3e,,,,,,,,,,,,,6992,1,0,1,0,1,0,,,,,,,300,200,0,const,3.5,91,left,6,-65,[],[],317.3,-158.5,9,1,40,0,40,0,1,39,,,,,,,,
,,,,,,,,,,,,,,,,,,,,5f1d879edef5136a796ed7a2,22,Female,2020-07-27_11h48.51.277,AvatarAutomaticProl,3.2.2,Win32,60,5f1d879edef5136a796ed7a2,5f1b026ff9f4e82811599350,5f1eb0e92c3f7200088cdf3e,,,,,,,,,,,,,8748,1,0,1,0,1,0,,,,,,,200,100,0,const,3.5,133,left,4,19,[],[],334,-59,-8.5,1,40,0,40,0,1,39,,,,,,,,
,,,,,,,,,,,,,,,,,,,,5f1d879edef5136a796ed7a2,22,Female,2020-07-27_11h48.51.277,AvatarAutomaticProl,3.2.2,Win32,60,5f1d879edef5136a796ed7a2,5f1b026ff9f4e82811599350,5f1eb0e92c3f7200088cdf3e,,,,,,,,,,,,,8104,1,0,1,0,1,0,,,,,,,400,300,0,const,3.5,135,right,52,87,[],[],350.7,258.5,12.5,1,40,0,40,0,1,39,,,,,,,,
,,,,,,,,,,,,,,,,,,,,5f1d879edef5136a796ed7a2,22,Female,2020-07-27_11h48.51.277,AvatarAutomaticProl,3.2.2,Win32,60,5f1d879edef5136a796ed7a2,5f1b026ff9f4e82811599350,5f1eb0e92c3f7200088cdf3e,,,,,,,,,,,,,6925,1,0,1,0,1,0,,,,,,,300,200,0,const,3.5,67,left,-2,-6,[],[],350.7,-159.5,-19,1,40,0,40,0,1,39,,,,,,,,
,,,,,,,,,,,,,,,,,,,,5f1d879edef5136a796ed7a2,22,Female,2020-07-27_11h48.51.277,AvatarAutomaticProl,3.2.2,Win32,60,5f1d879edef5136a796ed7a2,5f1b026ff9f4e82811599350,5f1eb0e92c3f7200088cdf3e,,,,,,,,,,,,,8483,1,0,1,0,1,0,,,,,,,300,200,0,const,3.5,136,left,11,-63,[],[],484.3,11,5.5,0,40,0,40,0,1,39,,,,,,,,
,,,,,,,,,,,,,,,,,,,,5f1d879edef5136a796ed7a2,22,Female,2020-07-27_11h48.51.277,AvatarAutomaticProl,3.2.2,Win32,60,5f1d879edef5136a796ed7a2,5f1b026ff9f4e82811599350,5f1eb0e92c3f7200088cdf3e,,,,,,,,,,,,,8025,1,0,1,0,1,0,,,,,,,400,300,0,const,3.5,75,left,-101,-128,[],[],317.3,-258.5,-1.5,1,40,0,40,0,1,39,,,,,,,,
,,,,,,,,,,,,,,,,,,,,5f1d879edef5136a796ed7a2,22,Female,2020-07-27_11h48.51.277,AvatarAutomaticProl,3.2.2,Win32,60,5f1d879edef5136a796ed7a2,5f1b026ff9f4e82811599350,5f1eb0e92c3f7200088cdf3e,,,,,,,,,,,,,8086,1,0,1,0,1,0,,,,,,,400,300,0,const,3.5,98,left,29,26,[],[],384.1,-181,12.5,0,40,0,40,0,1,39,,,,,,,,
,,,,,,,,,,,,,,,,,,,,5f1d879edef5136a796ed7a2,22,Female,2020-07-27_11h48.51.277,AvatarAutomaticProl,3.2.2,Win32,60,5f1d879edef5136a796ed7a2,5f1b026ff9f4e82811599350,5f1eb0e92c3f7200088cdf3e,,,,,,,,,,,,,6201,1,0,1,0,1,0,,,,,,,200,100,0,const,3.5,70,right,10,-49,[],[],250.5,62.5,19.5,1,40,0,40,0,1,39,,,,,,,,
,,,,,,,,,,,,,,,,,,,,5f1d879edef5136a796ed7a2,22,Female,2020-07-27_11h48.51.277,AvatarAutomaticProl,3.2.2,Win32,60,5f1d879edef5136a796ed7a2,5f1b026ff9f4e82811599350,5f1eb0e92c3f7200088cdf3e,,,,,,,,,,,,,7328,1,0,1,0,1,0,,,,,,,400,300,0,const,3.5,103,right,155,147,[],[],367.4,260,-15.5,1,40,0,40,0,1,39,,,,,,,,
,,,,,,,,,,,,,,,,,,,,5f1d879edef5136a796ed7a2,22,Female,2020-07-27_11h48.51.277,AvatarAutomaticProl,3.2.2,Win32,60,5f1d879edef5136a796ed7a2,5f1b026ff9f4e82811599350,5f1eb0e92c3f7200088cdf3e,,,,,,,,,,,,,6727,1,0,1,0,1,0,,,,,,,200,100,0,const,3.5,106,right,4,32,[],[],217.1,60,12.5,1,40,0,40,0,1,39,,,,,,,,
,,,,,,,,,,,,,,,,,,,,5f1d879edef5136a796ed7a2,22,Female,2020-07-27_11h48.51.277,AvatarAutomaticProl,3.2.2,Win32,60,5f1d879edef5136a796ed7a2,5f1b026ff9f4e82811599350,5f1eb0e92c3f7200088cdf3e,,,,,,,,,,,,,7496,1,0,1,0,1,0,,,,,,,400,300,0,const,3.5,92,right,-69,-63,[],[],718.1,74.5,-5,0,40,0,40,0,1,39,,,,,,,,
,,,,,,,,,,,,,,,,,,,,5f1d879edef5136a796ed7a2,22,Female,2020-07-27_11h48.51.277,AvatarAutomaticProl,3.2.2,Win32,60,5f1d879edef5136a796ed7a2,5f1b026ff9f4e82811599350,5f1eb0e92c3f7200088cdf3e,,,,,,,,,,,,,7388,1,0,1,0,1,0,,,,,,,500,400,0,const,3.5,75,left,-108,-106,[],[],317.3,-279.5,9,0,40,0,40,0,1,39,,,,,,,,
,,,,,,,,,,,,,,,,,,,,5f1d879edef5136a796ed7a2,22,Female,2020-07-27_11h48.51.277,AvatarAutomaticProl,3.2.2,Win32,60,5f1d879edef5136a796ed7a2,5f1b026ff9f4e82811599350,5f1eb0e92c3f7200088cdf3e,,,,,,,,,,,,,7304,1,0,1,0,1,0,,,,,,,400,300,0,const,3.5,99,left,92,91,[],[],317.3,-139,19.5,0,40,0,40,0,1,39,,,,,,,,
,,,,,,,,,,,,,,,,,,,,5f1d879edef5136a796ed7a2,22,Female,2020-07-27_11h48.51.277,AvatarAutomaticProl,3.2.2,Win32,60,5f1d879edef5136a796ed7a2,5f1b026ff9f4e82811599350,5f1eb0e92c3f7200088cdf3e,,,,,,,,,,,,,14865,1,0,1,0,1,0,,,,,,,300,200,0,const,3.5,111,left,-10,-91,[],[],217.1,-157,-12,1,40,0,40,0,1,39,,,,,,,,
,,,,,,,,,,,,,,,,,,,,5f1d879edef5136a796ed7a2,22,Female,2020-07-27_11h48.51.277,AvatarAutomaticProl,3.2.2,Win32,60,5f1d879edef5136a796ed7a2,5f1b026ff9f4e82811599350,5f1eb0e92c3f7200088cdf3e,,,,,,,,,,,,,14319,1,0,1,0,1,0,,,,,,,200,100,0,const,3.5,131,right,10,-23,[],[],300.6,59,-8.5,1,40,0,40,0,1,39,,,,,,,,
,,,,,,,,,,,,,,,,,,,,5f1d879edef5136a796ed7a2,22,Female,2020-07-27_11h48.51.277,AvatarAutomaticProl,3.2.2,Win32,60,5f1d879edef5136a796ed7a2,5f1b026ff9f4e82811599350,5f1eb0e92c3f7200088cdf3e,,,,,,,,,,,,,10609,1,0,1,0,1,0,,,,,,,500,400,0,const,3.5,74,left,177,178,[],[],267.2,-54,-5,0,40,0,40,0,1,39,,,,,,,,
,,,,,,,,,,,,,,,,,,,,5f1d879edef5136a796ed7a2,22,Female,2020-07-27_11h48.51.277,AvatarAutomaticProl,3.2.2,Win32,60,5f1d879edef5136a796ed7a2,5f1b026ff9f4e82811599350,5f1eb0e92c3f7200088cdf3e,,,,,,,,,,,,,11452,1,0,1,0,1,0,,,,,,,200,100,0,const,3.5,94,left,5,23,[],[],434.2,-58,5.5,1,40,0,40,0,1,39,,,,,,,,
,,,,,,,,,,,,,,,,,,,,5f1d879edef5136a796ed7a2,22,Female,2020-07-27_11h48.51.277,AvatarAutomaticProl,3.2.2,Win32,60,5f1d879edef5136a796ed7a2,5f1b026ff9f4e82811599350,5f1eb0e92c3f7200088cdf3e,,,,,,,,,,,,,8044,1,0,1,0,1,0,,,,,,,500,400,0,const,3.5,113,right,-166,-162,[],[],217.1,114,19.5,0,40,0,40,0,1,39,,,,,,,,
,,,,,,,,,,,,,,,,,,,,5f1d879edef5136a796ed7a2,22,Female,2020-07-27_11h48.51.277,AvatarAutomaticProl,3.2.2,Win32,60,5f1d879edef5136a796ed7a2,5f1b026ff9f4e82811599350,5f1eb0e92c3f7200088cdf3e,,,,,,,,,,,,,10554,1,0,1,0,1,0,,,,,,,,,,,,,,,,,,,,,,,,,,,,400,0.213333333,8,0,8,0,1,7
,,,,,,,,,,,,,,,,,,,,5f1d879edef5136a796ed7a2,22,Female,2020-07-27_11h48.51.277,AvatarAutomaticProl,3.2.2,Win32,60,5f1d879edef5136a796ed7a2,5f1b026ff9f4e82811599350,5f1eb0e92c3f7200088cdf3e,,,,,,,,,,,,,5510,1,0,1,0,1,0,,,,,,,,,,,,,,,,,,,,,,,,,,,,300,-0.486666667,8,0,8,0,1,7
,,,,,,,,,,,,,,,,,,,,5f1d879edef5136a796ed7a2,22,Female,2020-07-27_11h48.51.277,AvatarAutomaticProl,3.2.2,Win32,60,5f1d879edef5136a796ed7a2,5f1b026ff9f4e82811599350,5f1eb0e92c3f7200088cdf3e,,,,,,,,,,,,,6917,1,0,1,0,1,0,,,,,,,,,,,,,,,,,,,,,,,,,,,,400,0.473333333,8,0,8,0,1,7
,,,,,,,,,,,,,,,,,,,,5f1d879edef5136a796ed7a2,22,Female,2020-07-27_11h48.51.277,AvatarAutomaticProl,3.2.2,Win32,60,5f1d879edef5136a796ed7a2,5f1b026ff9f4e82811599350,5f1eb0e92c3f7200088cdf3e,,,,,,,,,,,,,3537,1,0,1,0,1,0,,,,,,,,,,,,,,,,,,,,,,,,,,,,500,0.98,8,0,8,0,1,7
,,,,,,,,,,,,,,,,,,,,5f1d879edef5136a796ed7a2,22,Female,2020-07-27_11h48.51.277,AvatarAutomaticProl,3.2.2,Win32,60,5f1d879edef5136a796ed7a2,5f1b026ff9f4e82811599350,5f1eb0e92c3f7200088cdf3e,,,,,,,,,,,,,3251,1,0,1,0,1,0,,,,,,,,,,,,,,,,,,,,,,,,,,,,500,0.766666667,8,0,8,0,1,7
,,,,,,,,,,,,,,,,,,,,5f1d879edef5136a796ed7a2,22,Female,2020-07-27_11h48.51.277,AvatarAutomaticProl,3.2.2,Win32,60,5f1d879edef5136a796ed7a2,5f1b026ff9f4e82811599350,5f1eb0e92c3f7200088cdf3e,,,,,,,,,,,,,2830,1,0,1,0,1,0,,,,,,,,,,,,,,,,,,,,,,,,,,,,200,-0.98,8,0,8,0,1,7
,,,,,,,,,,,,,,,,,,,,5f1d879edef5136a796ed7a2,22,Female,2020-07-27_11h48.51.277,AvatarAutomaticProl,3.2.2,Win32,60,5f1d879edef5136a796ed7a2,5f1b026ff9f4e82811599350,5f1eb0e92c3f7200088cdf3e,,,,,,,,,,,,,3183,1,0,1,0,1,0,,,,,,,,,,,,,,,,,,,,,,,,,,,,300,-0.746666667,8,0,8,0,1,7
,,,,,,,,,,,,,,,,,,,,5f1d879edef5136a796ed7a2,22,Female,2020-07-27_11h48.51.277,AvatarAutomaticProl,3.2.2,Win32,60,5f1d879edef5136a796ed7a2,5f1b026ff9f4e82811599350,5f1eb0e92c3f7200088cdf3e,,,,,,,,,,,,,4937,1,0,1,0,1,0,,,,,,,,,,,,,,,,,,,,,,,,,,,,200,-0.986666667,8,0,8,0,1,7
