Browser,true_x_res,true_y_res,x_adjustment,y_adjustment,Params_TravelTime,Params_yOffset,Params_Reach,Params_ScreenWidth,Params_ScreenHeight,Params_Hz,Params_HzScale,Params_conf_linewidth,params_consent,ConsentLoop.thisRepN,ConsentLoop.thisTrialN,ConsentLoop.thisN,ConsentLoop.thisIndex,ConsentLoop.ran,ConsentLoop.order,participant,Age,Gender,date,expName,psychopyVersion,OS,frameRate,PROLIFIC_PID,STUDY_ID,SESSION_ID,Demo_speedCond,Demo_delta,Demo_xposTarget,Demo_yposTarget,Demo_Delay,Demo_AvSpeed,Demo_Success,Demo_motion,Demo_Click,Demo_RTms,Demo_finalX,Demo_finalY,Trial_duration,BlockLoop.thisRepN,BlockLoop.thisTrialN,BlockLoop.thisN,BlockLoop.thisIndex,BlockLoop.ran,BlockLoop.order,DemoLoop.thisRepN,DemoLoop.thisTrialN,DemoLoop.thisN,DemoLoop.thisIndex,DemoLoop.ran,DemoLoop.order,Decision_Delta,Decision_xposTarget,Decision_yposTarget,Decision_SpeedCond,Decision_AvSpeed,Decision_delay,Decision_targetSide,Decision_placement,Decision_initplace,Decision_Driving,Decision_Click,Decision_RTms,Decision_finalX,Decision_finalY,Decision_success,DecisionTrialLoop.thisRepN,DecisionTrialLoop.thisTrialN,DecisionTrialLoop.thisN,DecisionTrialLoop.thisIndex,DecisionTrialLoop.ran,DecisionTrialLoop.order,Confidence_Delta,Confidence_resp,ConfidenceLoop.thisRepN,ConfidenceLoop.thisTrialN,ConfidenceLoop.thisN,ConfidenceLoop.thisIndex,ConfidenceLoop.ran,ConfidenceLoop.order,exp_duration
Firefox,1536,750,1,1,120,100,45,1200,600,60,1,300,Agreed,3,0,3,0,1,2,5ea954d9074a4a02c77dd184,23,Male,2020-07-27_16h10.47.786,AvatarAutomaticProl,3.2.2,Win32,60,5ea954d9074a4a02c77dd184,5f1b026ff9f4e82811599350,5f1eebc2c4175b052410d335,,,,,,,,,,,,,,,,,,,,,,,,,,,,,,,,,,,,,,,,,,,,,,,,,,,,,,,
,,,,,,,,,,,,,Agreed,3,0,3,0,1,2,5ea954d9074a4a02c77dd184,23,Male,2020-07-27_16h10.47.786,AvatarAutomaticProl,3.2.2,Win32,60,5ea954d9074a4a02c77dd184,5f1b026ff9f4e82811599350,5f1eebc2c4175b052410d335,,,,,,,,,,,,,,,,,,,,,,,,,,,,,,,,,,,,,,,,,,,,,,,,,,,,,,,
,,,,,,,,,,,,,Agreed,3,0,3,0,1,2,5ea954d9074a4a02c77dd184,23,Male,2020-07-27_16h10.47.786,AvatarAutomaticProl,3.2.2,Win32,60,5ea954d9074a4a02c77dd184,5f1b026ff9f4e82811599350,5f1eebc2c4175b052410d335,,,,,,,,,,,,,,,,,,,,,,,,,,,,,,,,,,,,,,,,,,,,,,,,,,,,,,,
,,,,,,,,,,,,,,,,,,,,5ea954d9074a4a02c77dd184,23,Male,2020-07-27_16h10.47.786,AvatarAutomaticProl,3.2.2,Win32,60,5ea954d9074a4a02c77dd184,5f1b026ff9f4e82811599350,5f1eebc2c4175b052410d335,const,500,-400,0,130,3.5,0,[],[],367.4,-245,2,11462,1,0,1,0,1,0,48,0,48,0,1,47,,,,,,,,,,,,,,,,,,,,,,,,,,,,,,
,,,,,,,,,,,,,,,,,,,,5ea954d9074a4a02c77dd184,23,Male,2020-07-27_16h10.47.786,AvatarAutomaticProl,3.2.2,Win32,60,5ea954d9074a4a02c77dd184,5f1b026ff9f4e82811599350,5f1eebc2c4175b052410d335,,500,400,0,140,3.5,0,[],[],450.9,245,23,7530,1,0,1,0,1,0,48,0,48,0,1,47,,,,,,,,,,,,,,,,,,,,,,,,,,,,,,
,,,,,,,,,,,,,,,,,,,,5ea954d9074a4a02c77dd184,23,Male,2020-07-27_16h10.47.786,AvatarAutomaticProl,3.2.2,Win32,60,5ea954d9074a4a02c77dd184,5f1b026ff9f4e82811599350,5f1eebc2c4175b052410d335,,200,100,0,86,3.5,1,[],[],217.1,56,9,6014,1,0,1,0,1,0,48,0,48,0,1,47,,,,,,,,,,,,,,,,,,,,,,,,,,,,,,
,,,,,,,,,,,,,,,,,,,,5ea954d9074a4a02c77dd184,23,Male,2020-07-27_16h10.47.786,AvatarAutomaticProl,3.2.2,Win32,60,5ea954d9074a4a02c77dd184,5f1b026ff9f4e82811599350,5f1eebc2c4175b052410d335,,300,200,0,143,3.5,1,[],[],300.6,157.5,9,7331,1,0,1,0,1,0,48,0,48,0,1,47,,,,,,,,,,,,,,,,,,,,,,,,,,,,,,
,,,,,,,,,,,,,,,,,,,,5ea954d9074a4a02c77dd184,23,Male,2020-07-27_16h10.47.786,AvatarAutomaticProl,3.2.2,Win32,60,5ea954d9074a4a02c77dd184,5f1b026ff9f4e82811599350,5f1eebc2c4175b052410d335,,400,-300,0,123,3.5,1,[],[],300.6,-259,12.5,6198,1,0,1,0,1,0,48,0,48,0,1,47,,,,,,,,,,,,,,,,,,,,,,,,,,,,,,
,,,,,,,,,,,,,,,,,,,,5ea954d9074a4a02c77dd184,23,Male,2020-07-27_16h10.47.786,AvatarAutomaticProl,3.2.2,Win32,60,5ea954d9074a4a02c77dd184,5f1b026ff9f4e82811599350,5f1eebc2c4175b052410d335,,300,200,0,136,3.5,1,[],[],317.3,157.5,12.5,6181,1,0,1,0,1,0,48,0,48,0,1,47,,,,,,,,,,,,,,,,,,,,,,,,,,,,,,
,,,,,,,,,,,,,,,,,,,,5ea954d9074a4a02c77dd184,23,Male,2020-07-27_16h10.47.786,AvatarAutomaticProl,3.2.2,Win32,60,5ea954d9074a4a02c77dd184,5f1b026ff9f4e82811599350,5f1eebc2c4175b052410d335,,400,-300,0,98,3.5,0,[],[],400.8,-210,2,5014,1,0,1,0,1,0,48,0,48,0,1,47,,,,,,,,,,,,,,,,,,,,,,,,,,,,,,
,,,,,,,,,,,,,,,,,,,,5ea954d9074a4a02c77dd184,23,Male,2020-07-27_16h10.47.786,AvatarAutomaticProl,3.2.2,Win32,60,5ea954d9074a4a02c77dd184,5f1b026ff9f4e82811599350,5f1eebc2c4175b052410d335,,300,200,0,103,3.5,1,[],[],334,164.5,26.5,21677,1,0,1,0,1,0,48,0,48,0,1,47,,,,,,,,,,,,,,,,,,,,,,,,,,,,,,
,,,,,,,,,,,,,,,,,,,,5ea954d9074a4a02c77dd184,23,Male,2020-07-27_16h10.47.786,AvatarAutomaticProl,3.2.2,Win32,60,5ea954d9074a4a02c77dd184,5f1b026ff9f4e82811599350,5f1eebc2c4175b052410d335,,200,100,0,103,3.5,1,[],[],400.8,56,-8.5,76023,1,0,1,0,1,0,48,0,48,0,1,47,,,,,,,,,,,,,,,,,,,,,,,,,,,,,,
,,,,,,,,,,,,,,,,,,,,5ea954d9074a4a02c77dd184,23,Male,2020-07-27_16h10.47.786,AvatarAutomaticProl,3.2.2,Win32,60,5ea954d9074a4a02c77dd184,5f1b026ff9f4e82811599350,5f1eebc2c4175b052410d335,,300,-200,0,127,3.5,1,[],[],250.5,-157.5,-12,5280,1,0,1,0,1,0,48,0,48,0,1,47,,,,,,,,,,,,,,,,,,,,,,,,,,,,,,
,,,,,,,,,,,,,,,,,,,,5ea954d9074a4a02c77dd184,23,Male,2020-07-27_16h10.47.786,AvatarAutomaticProl,3.2.2,Win32,60,5ea954d9074a4a02c77dd184,5f1b026ff9f4e82811599350,5f1eebc2c4175b052410d335,,400,-300,0,112,3.5,1,[],[],200.4,-262.5,19.5,5114,1,0,1,0,1,0,48,0,48,0,1,47,,,,,,,,,,,,,,,,,,,,,,,,,,,,,,
,,,,,,,,,,,,,,,,,,,,5ea954d9074a4a02c77dd184,23,Male,2020-07-27_16h10.47.786,AvatarAutomaticProl,3.2.2,Win32,60,5ea954d9074a4a02c77dd184,5f1b026ff9f4e82811599350,5f1eebc2c4175b052410d335,,200,-100,0,120,3.5,1,[],[],450.9,-56,5.5,4515,1,0,1,0,1,0,48,0,48,0,1,47,,,,,,,,,,,,,,,,,,,,,,,,,,,,,,
,,,,,,,,,,,,,,,,,,,,5ea954d9074a4a02c77dd184,23,Male,2020-07-27_16h10.47.786,AvatarAutomaticProl,3.2.2,Win32,60,5ea954d9074a4a02c77dd184,5f1b026ff9f4e82811599350,5f1eebc2c4175b052410d335,,400,-300,0,79,3.5,0,[],[],283.9,-224,2,4432,1,0,1,0,1,0,48,0,48,0,1,47,,,,,,,,,,,,,,,,,,,,,,,,,,,,,,
,,,,,,,,,,,,,,,,,,,,5ea954d9074a4a02c77dd184,23,Male,2020-07-27_16h10.47.786,AvatarAutomaticProl,3.2.2,Win32,60,5ea954d9074a4a02c77dd184,5f1b026ff9f4e82811599350,5f1eebc2c4175b052410d335,,300,200,0,102,3.5,1,[],[],367.4,157.5,9,4681,1,0,1,0,1,0,48,0,48,0,1,47,,,,,,,,,,,,,,,,,,,,,,,,,,,,,,
,,,,,,,,,,,,,,,,,,,,5ea954d9074a4a02c77dd184,23,Male,2020-07-27_16h10.47.786,AvatarAutomaticProl,3.2.2,Win32,60,5ea954d9074a4a02c77dd184,5f1b026ff9f4e82811599350,5f1eebc2c4175b052410d335,,500,400,0,61,3.5,0,[],[],250.5,252,2,5168,1,0,1,0,1,0,48,0,48,0,1,47,,,,,,,,,,,,,,,,,,,,,,,,,,,,,,
,,,,,,,,,,,,,,,,,,,,5ea954d9074a4a02c77dd184,23,Male,2020-07-27_16h10.47.786,AvatarAutomaticProl,3.2.2,Win32,60,5ea954d9074a4a02c77dd184,5f1b026ff9f4e82811599350,5f1eebc2c4175b052410d335,,200,100,0,65,3.5,1,[],[],317.3,59.5,16,3532,1,0,1,0,1,0,48,0,48,0,1,47,,,,,,,,,,,,,,,,,,,,,,,,,,,,,,
,,,,,,,,,,,,,,,,,,,,5ea954d9074a4a02c77dd184,23,Male,2020-07-27_16h10.47.786,AvatarAutomaticProl,3.2.2,Win32,60,5ea954d9074a4a02c77dd184,5f1b026ff9f4e82811599350,5f1eebc2c4175b052410d335,,500,-400,0,87,3.5,0,[],[],450.9,-220.5,2,4532,1,0,1,0,1,0,48,0,48,0,1,47,,,,,,,,,,,,,,,,,,,,,,,,,,,,,,
,,,,,,,,,,,,,,,,,,,,5ea954d9074a4a02c77dd184,23,Male,2020-07-27_16h10.47.786,AvatarAutomaticProl,3.2.2,Win32,60,5ea954d9074a4a02c77dd184,5f1b026ff9f4e82811599350,5f1eebc2c4175b052410d335,,400,300,0,93,3.5,0,[],[],384.1,182,-19,4815,1,0,1,0,1,0,48,0,48,0,1,47,,,,,,,,,,,,,,,,,,,,,,,,,,,,,,
,,,,,,,,,,,,,,,,,,,,5ea954d9074a4a02c77dd184,23,Male,2020-07-27_16h10.47.786,AvatarAutomaticProl,3.2.2,Win32,60,5ea954d9074a4a02c77dd184,5f1b026ff9f4e82811599350,5f1eebc2c4175b052410d335,,300,200,0,66,3.5,1,[],[],400.8,164.5,26.5,4165,1,0,1,0,1,0,48,0,48,0,1,47,,,,,,,,,,,,,,,,,,,,,,,,,,,,,,
,,,,,,,,,,,,,,,,,,,,5ea954d9074a4a02c77dd184,23,Male,2020-07-27_16h10.47.786,AvatarAutomaticProl,3.2.2,Win32,60,5ea954d9074a4a02c77dd184,5f1b026ff9f4e82811599350,5f1eebc2c4175b052410d335,,200,-100,0,130,3.5,1,[],[],334,-59.5,16,5381,1,0,1,0,1,0,48,0,48,0,1,47,,,,,,,,,,,,,,,,,,,,,,,,,,,,,,
,,,,,,,,,,,,,,,,,,,,5ea954d9074a4a02c77dd184,23,Male,2020-07-27_16h10.47.786,AvatarAutomaticProl,3.2.2,Win32,60,5ea954d9074a4a02c77dd184,5f1b026ff9f4e82811599350,5f1eebc2c4175b052410d335,,200,-100,0,90,3.5,1,[],[],267.2,-56,5.5,3948,1,0,1,0,1,0,48,0,48,0,1,47,,,,,,,,,,,,,,,,,,,,,,,,,,,,,,
,,,,,,,,,,,,,,,,,,,,5ea954d9074a4a02c77dd184,23,Male,2020-07-27_16h10.47.786,AvatarAutomaticProl,3.2.2,Win32,60,5ea954d9074a4a02c77dd184,5f1b026ff9f4e82811599350,5f1eebc2c4175b052410d335,,400,-300,0,109,3.5,1,[],[],283.9,-255.5,5.5,5115,1,0,1,0,1,0,48,0,48,0,1,47,,,,,,,,,,,,,,,,,,,,,,,,,,,,,,
,,,,,,,,,,,,,,,,,,,,5ea954d9074a4a02c77dd184,23,Male,2020-07-27_16h10.47.786,AvatarAutomaticProl,3.2.2,Win32,60,5ea954d9074a4a02c77dd184,5f1b026ff9f4e82811599350,5f1eebc2c4175b052410d335,,500,-400,0,111,3.5,0,[],[],417.5,-231,-1.5,5831,1,0,1,0,1,0,48,0,48,0,1,47,,,,,,,,,,,,,,,,,,,,,,,,,,,,,,
,,,,,,,,,,,,,,,,,,,,5ea954d9074a4a02c77dd184,23,Male,2020-07-27_16h10.47.786,AvatarAutomaticProl,3.2.2,Win32,60,5ea954d9074a4a02c77dd184,5f1b026ff9f4e82811599350,5f1eebc2c4175b052410d335,,300,200,0,91,3.5,1,[],[],267.2,157.5,2,4231,1,0,1,0,1,0,48,0,48,0,1,47,,,,,,,,,,,,,,,,,,,,,,,,,,,,,,
,,,,,,,,,,,,,,,,,,,,5ea954d9074a4a02c77dd184,23,Male,2020-07-27_16h10.47.786,AvatarAutomaticProl,3.2.2,Win32,60,5ea954d9074a4a02c77dd184,5f1b026ff9f4e82811599350,5f1eebc2c4175b052410d335,,500,-400,0,107,3.5,0,[],[],250.5,-283.5,19.5,5415,1,0,1,0,1,0,48,0,48,0,1,47,,,,,,,,,,,,,,,,,,,,,,,,,,,,,,
,,,,,,,,,,,,,,,,,,,,5ea954d9074a4a02c77dd184,23,Male,2020-07-27_16h10.47.786,AvatarAutomaticProl,3.2.2,Win32,60,5ea954d9074a4a02c77dd184,5f1b026ff9f4e82811599350,5f1eebc2c4175b052410d335,,400,300,0,106,3.5,0,[],[],517.7,210,-1.5,4881,1,0,1,0,1,0,48,0,48,0,1,47,,,,,,,,,,,,,,,,,,,,,,,,,,,,,,
,,,,,,,,,,,,,,,,,,,,5ea954d9074a4a02c77dd184,23,Male,2020-07-27_16h10.47.786,AvatarAutomaticProl,3.2.2,Win32,60,5ea954d9074a4a02c77dd184,5f1b026ff9f4e82811599350,5f1eebc2c4175b052410d335,,400,-300,0,100,3.5,0,[],[],283.9,-255.5,9,4965,1,0,1,0,1,0,48,0,48,0,1,47,,,,,,,,,,,,,,,,,,,,,,,,,,,,,,
,,,,,,,,,,,,,,,,,,,,5ea954d9074a4a02c77dd184,23,Male,2020-07-27_16h10.47.786,AvatarAutomaticProl,3.2.2,Win32,60,5ea954d9074a4a02c77dd184,5f1b026ff9f4e82811599350,5f1eebc2c4175b052410d335,,300,-200,0,112,3.5,1,[],[],183.7,-157.5,2,4681,1,0,1,0,1,0,48,0,48,0,1,47,,,,,,,,,,,,,,,,,,,,,,,,,,,,,,
,,,,,,,,,,,,,,,,,,,,5ea954d9074a4a02c77dd184,23,Male,2020-07-27_16h10.47.786,AvatarAutomaticProl,3.2.2,Win32,60,5ea954d9074a4a02c77dd184,5f1b026ff9f4e82811599350,5f1eebc2c4175b052410d335,,500,400,0,132,3.5,0,[],[],334,213.5,-12,5615,1,0,1,0,1,0,48,0,48,0,1,47,,,,,,,,,,,,,,,,,,,,,,,,,,,,,,
,,,,,,,,,,,,,,,,,,,,5ea954d9074a4a02c77dd184,23,Male,2020-07-27_16h10.47.786,AvatarAutomaticProl,3.2.2,Win32,60,5ea954d9074a4a02c77dd184,5f1b026ff9f4e82811599350,5f1eebc2c4175b052410d335,,300,-200,0,83,3.5,1,[],[],334,-161,16,4298,1,0,1,0,1,0,48,0,48,0,1,47,,,,,,,,,,,,,,,,,,,,,,,,,,,,,,
,,,,,,,,,,,,,,,,,,,,5ea954d9074a4a02c77dd184,23,Male,2020-07-27_16h10.47.786,AvatarAutomaticProl,3.2.2,Win32,60,5ea954d9074a4a02c77dd184,5f1b026ff9f4e82811599350,5f1eebc2c4175b052410d335,,500,400,0,81,3.5,0,[],[],267.2,3.5,16,4633,1,0,1,0,1,0,48,0,48,0,1,47,,,,,,,,,,,,,,,,,,,,,,,,,,,,,,
,,,,,,,,,,,,,,,,,,,,5ea954d9074a4a02c77dd184,23,Male,2020-07-27_16h10.47.786,AvatarAutomaticProl,3.2.2,Win32,60,5ea954d9074a4a02c77dd184,5f1b026ff9f4e82811599350,5f1eebc2c4175b052410d335,,200,-100,0,106,3.5,1,[],[],350.7,-56,-1.5,4848,1,0,1,0,1,0,48,0,48,0,1,47,,,,,,,,,,,,,,,,,,,,,,,,,,,,,,
,,,,,,,,,,,,,,,,,,,,5ea954d9074a4a02c77dd184,23,Male,2020-07-27_16h10.47.786,AvatarAutomaticProl,3.2.2,Win32,60,5ea954d9074a4a02c77dd184,5f1b026ff9f4e82811599350,5f1eebc2c4175b052410d335,,300,200,0,137,3.5,1,[],[],317.3,157.5,-1.5,15077,1,0,1,0,1,0,48,0,48,0,1,47,,,,,,,,,,,,,,,,,,,,,,,,,,,,,,
,,,,,,,,,,,,,,,,,,,,5ea954d9074a4a02c77dd184,23,Male,2020-07-27_16h10.47.786,AvatarAutomaticProl,3.2.2,Win32,60,5ea954d9074a4a02c77dd184,5f1b026ff9f4e82811599350,5f1eebc2c4175b052410d335,,500,-400,0,62,3.5,0,[],[],267.2,-255.5,-8.5,4266,1,0,1,0,1,0,48,0,48,0,1,47,,,,,,,,,,,,,,,,,,,,,,,,,,,,,,
,,,,,,,,,,,,,,,,,,,,5ea954d9074a4a02c77dd184,23,Male,2020-07-27_16h10.47.786,AvatarAutomaticProl,3.2.2,Win32,60,5ea954d9074a4a02c77dd184,5f1b026ff9f4e82811599350,5f1eebc2c4175b052410d335,,200,100,0,81,3.5,1,[],[],334,56,9,3584,1,0,1,0,1,0,48,0,48,0,1,47,,,,,,,,,,,,,,,,,,,,,,,,,,,,,,
,,,,,,,,,,,,,,,,,,,,5ea954d9074a4a02c77dd184,23,Male,2020-07-27_16h10.47.786,AvatarAutomaticProl,3.2.2,Win32,60,5ea954d9074a4a02c77dd184,5f1b026ff9f4e82811599350,5f1eebc2c4175b052410d335,,500,-400,0,107,3.5,0,[],[],317.3,-206.5,5.5,4915,1,0,1,0,1,0,48,0,48,0,1,47,,,,,,,,,,,,,,,,,,,,,,,,,,,,,,
,,,,,,,,,,,,,,,,,,,,5ea954d9074a4a02c77dd184,23,Male,2020-07-27_16h10.47.786,AvatarAutomaticProl,3.2.2,Win32,60,5ea954d9074a4a02c77dd184,5f1b026ff9f4e82811599350,5f1eebc2c4175b052410d335,,400,300,0,88,3.5,0,[],[],367.4,231,-5,5147,1,0,1,0,1,0,48,0,48,0,1,47,,,,,,,,,,,,,,,,,,,,,,,,,,,,,,
,,,,,,,,,,,,,,,,,,,,5ea954d9074a4a02c77dd184,23,Male,2020-07-27_16h10.47.786,AvatarAutomaticProl,3.2.2,Win32,60,5ea954d9074a4a02c77dd184,5f1b026ff9f4e82811599350,5f1eebc2c4175b052410d335,,500,-400,0,86,3.5,0,[],[],350.7,-248.5,16,4582,1,0,1,0,1,0,48,0,48,0,1,47,,,,,,,,,,,,,,,,,,,,,,,,,,,,,,
,,,,,,,,,,,,,,,,,,,,5ea954d9074a4a02c77dd184,23,Male,2020-07-27_16h10.47.786,AvatarAutomaticProl,3.2.2,Win32,60,5ea954d9074a4a02c77dd184,5f1b026ff9f4e82811599350,5f1eebc2c4175b052410d335,,300,-200,0,103,3.5,1,[],[],283.9,-164.5,23,4948,1,0,1,0,1,0,48,0,48,0,1,47,,,,,,,,,,,,,,,,,,,,,,,,,,,,,,
,,,,,,,,,,,,,,,,,,,,5ea954d9074a4a02c77dd184,23,Male,2020-07-27_16h10.47.786,AvatarAutomaticProl,3.2.2,Win32,60,5ea954d9074a4a02c77dd184,5f1b026ff9f4e82811599350,5f1eebc2c4175b052410d335,,400,300,0,61,3.5,0,[],[],601.2,178.5,5.5,5365,1,0,1,0,1,0,48,0,48,0,1,47,,,,,,,,,,,,,,,,,,,,,,,,,,,,,,
,,,,,,,,,,,,,,,,,,,,5ea954d9074a4a02c77dd184,23,Male,2020-07-27_16h10.47.786,AvatarAutomaticProl,3.2.2,Win32,60,5ea954d9074a4a02c77dd184,5f1b026ff9f4e82811599350,5f1eebc2c4175b052410d335,,200,100,0,86,3.5,1,[],[],283.9,56,5.5,4664,1,0,1,0,1,0,48,0,48,0,1,47,,,,,,,,,,,,,,,,,,,,,,,,,,,,,,
,,,,,,,,,,,,,,,,,,,,5ea954d9074a4a02c77dd184,23,Male,2020-07-27_16h10.47.786,AvatarAutomaticProl,3.2.2,Win32,60,5ea954d9074a4a02c77dd184,5f1b026ff9f4e82811599350,5f1eebc2c4175b052410d335,,200,-100,0,81,3.5,1,[],[],283.9,-56,5.5,7664,1,0,1,0,1,0,48,0,48,0,1,47,,,,,,,,,,,,,,,,,,,,,,,,,,,,,,
,,,,,,,,,,,,,,,,,,,,5ea954d9074a4a02c77dd184,23,Male,2020-07-27_16h10.47.786,AvatarAutomaticProl,3.2.2,Win32,60,5ea954d9074a4a02c77dd184,5f1b026ff9f4e82811599350,5f1eebc2c4175b052410d335,,500,-400,0,125,3.5,0,[],[],283.9,-248.5,-8.5,11562,1,0,1,0,1,0,48,0,48,0,1,47,,,,,,,,,,,,,,,,,,,,,,,,,,,,,,
,,,,,,,,,,,,,,,,,,,,5ea954d9074a4a02c77dd184,23,Male,2020-07-27_16h10.47.786,AvatarAutomaticProl,3.2.2,Win32,60,5ea954d9074a4a02c77dd184,5f1b026ff9f4e82811599350,5f1eebc2c4175b052410d335,,400,300,0,98,3.5,0,[],[],384.1,234.5,-1.5,5331,1,0,1,0,1,0,48,0,48,0,1,47,,,,,,,,,,,,,,,,,,,,,,,,,,,,,,
,,,,,,,,,,,,,,,,,,,,5ea954d9074a4a02c77dd184,23,Male,2020-07-27_16h10.47.786,AvatarAutomaticProl,3.2.2,Win32,60,5ea954d9074a4a02c77dd184,5f1b026ff9f4e82811599350,5f1eebc2c4175b052410d335,,400,-300,0,69,3.5,0,[],[],450.9,-217,19.5,4482,1,0,1,0,1,0,48,0,48,0,1,47,,,,,,,,,,,,,,,,,,,,,,,,,,,,,,
,,,,,,,,,,,,,,,,,,,,5ea954d9074a4a02c77dd184,23,Male,2020-07-27_16h10.47.786,AvatarAutomaticProl,3.2.2,Win32,60,5ea954d9074a4a02c77dd184,5f1b026ff9f4e82811599350,5f1eebc2c4175b052410d335,,200,100,0,76,3.5,1,[],[],334,56,5.5,3849,1,0,1,0,1,0,48,0,48,0,1,47,,,,,,,,,,,,,,,,,,,,,,,,,,,,,,
,,,,,,,,,,,,,,,,,,,,5ea954d9074a4a02c77dd184,23,Male,2020-07-27_16h10.47.786,AvatarAutomaticProl,3.2.2,Win32,60,5ea954d9074a4a02c77dd184,5f1b026ff9f4e82811599350,5f1eebc2c4175b052410d335,,300,-200,0,135,3.5,1,[],[],300.6,-164.5,-26,5347,1,0,1,0,1,0,48,0,48,0,1,47,,,,,,,,,,,,,,,,,,,,,,,,,,,,,,
,,,,,,,,,,,,,,,,,,,,5ea954d9074a4a02c77dd184,23,Male,2020-07-27_16h10.47.786,AvatarAutomaticProl,3.2.2,Win32,60,5ea954d9074a4a02c77dd184,5f1b026ff9f4e82811599350,5f1eebc2c4175b052410d335,,200,100,0,65,3.5,1,[],[],384.1,56,-1.5,3765,1,0,1,0,1,0,48,0,48,0,1,47,,,,,,,,,,,,,,,,,,,,,,,,,,,,,,
,,,,,,,,,,,,,,,,,,,,5ea954d9074a4a02c77dd184,23,Male,2020-07-27_16h10.47.786,AvatarAutomaticProl,3.2.2,Win32,60,5ea954d9074a4a02c77dd184,5f1b026ff9f4e82811599350,5f1eebc2c4175b052410d335,,,,,,,,,,,,,13940,1,0,1,0,1,0,,,,,,,500,400,0,const,3.5,74,right,188,125,[],[],283.9,356,5.5,1,40,0,40,0,1,39,,,,,,,,,
,,,,,,,,,,,,,,,,,,,,5ea954d9074a4a02c77dd184,23,Male,2020-07-27_16h10.47.786,AvatarAutomaticProl,3.2.2,Win32,60,5ea954d9074a4a02c77dd184,5f1b026ff9f4e82811599350,5f1eebc2c4175b052410d335,,,,,,,,,,,,,8513,1,0,1,0,1,0,,,,,,,300,200,0,const,3.5,96,left,3,-27,[],[],384.1,-144,-22.5,0,40,0,40,0,1,39,,,,,,,,,
,,,,,,,,,,,,,,,,,,,,5ea954d9074a4a02c77dd184,23,Male,2020-07-27_16h10.47.786,AvatarAutomaticProl,3.2.2,Win32,60,5ea954d9074a4a02c77dd184,5f1b026ff9f4e82811599350,5f1eebc2c4175b052410d335,,,,,,,,,,,,,9295,1,0,1,0,1,0,,,,,,,300,200,0,const,3.5,134,right,3,-83,[],[],350.7,132.5,9,0,40,0,40,0,1,39,,,,,,,,,
,,,,,,,,,,,,,,,,,,,,5ea954d9074a4a02c77dd184,23,Male,2020-07-27_16h10.47.786,AvatarAutomaticProl,3.2.2,Win32,60,5ea954d9074a4a02c77dd184,5f1b026ff9f4e82811599350,5f1eebc2c4175b052410d335,,,,,,,,,,,,,8846,1,0,1,0,1,0,,,,,,,200,100,0,const,3.5,126,left,1,-2,[],[],317.3,-58.5,-1.5,1,40,0,40,0,1,39,,,,,,,,,
,,,,,,,,,,,,,,,,,,,,5ea954d9074a4a02c77dd184,23,Male,2020-07-27_16h10.47.786,AvatarAutomaticProl,3.2.2,Win32,60,5ea954d9074a4a02c77dd184,5f1b026ff9f4e82811599350,5f1eebc2c4175b052410d335,,,,,,,,,,,,,8813,1,0,1,0,1,0,,,,,,,500,400,0,const,3.5,84,right,-185,-8,[],[],350.7,60,12.5,0,40,0,40,0,1,39,,,,,,,,,
,,,,,,,,,,,,,,,,,,,,5ea954d9074a4a02c77dd184,23,Male,2020-07-27_16h10.47.786,AvatarAutomaticProl,3.2.2,Win32,60,5ea954d9074a4a02c77dd184,5f1b026ff9f4e82811599350,5f1eebc2c4175b052410d335,,,,,,,,,,,,,10929,1,0,1,0,1,0,,,,,,,200,100,0,const,3.5,99,right,1,-18,[],[],417.5,60.5,16,1,40,0,40,0,1,39,,,,,,,,,
,,,,,,,,,,,,,,,,,,,,5ea954d9074a4a02c77dd184,23,Male,2020-07-27_16h10.47.786,AvatarAutomaticProl,3.2.2,Win32,60,5ea954d9074a4a02c77dd184,5f1b026ff9f4e82811599350,5f1eebc2c4175b052410d335,,,,,,,,,,,,,8264,1,0,1,0,1,0,,,,,,,400,300,0,const,3.5,80,right,-112,-70,[],[],317.3,105,-1.5,0,40,0,40,0,1,39,,,,,,,,,
,,,,,,,,,,,,,,,,,,,,5ea954d9074a4a02c77dd184,23,Male,2020-07-27_16h10.47.786,AvatarAutomaticProl,3.2.2,Win32,60,5ea954d9074a4a02c77dd184,5f1b026ff9f4e82811599350,5f1eebc2c4175b052410d335,,,,,,,,,,,,,9695,1,0,1,0,1,0,,,,,,,400,300,0,const,3.5,148,left,159,51,[],[],283.9,-103.5,9,0,40,0,40,0,1,39,,,,,,,,,
,,,,,,,,,,,,,,,,,,,,5ea954d9074a4a02c77dd184,23,Male,2020-07-27_16h10.47.786,AvatarAutomaticProl,3.2.2,Win32,60,5ea954d9074a4a02c77dd184,5f1b026ff9f4e82811599350,5f1eebc2c4175b052410d335,,,,,,,,,,,,,8080,1,0,1,0,1,0,,,,,,,400,300,0,const,3.5,102,left,176,-8,[],[],384.1,-48,12.5,0,40,0,40,0,1,39,,,,,,,,,
,,,,,,,,,,,,,,,,,,,,5ea954d9074a4a02c77dd184,23,Male,2020-07-27_16h10.47.786,AvatarAutomaticProl,3.2.2,Win32,60,5ea954d9074a4a02c77dd184,5f1b026ff9f4e82811599350,5f1eebc2c4175b052410d335,,,,,,,,,,,,,7031,1,0,1,0,1,0,,,,,,,300,200,0,const,3.5,68,right,198,96,[],[],350.7,198,44,1,40,0,40,0,1,39,,,,,,,,,
,,,,,,,,,,,,,,,,,,,,5ea954d9074a4a02c77dd184,23,Male,2020-07-27_16h10.47.786,AvatarAutomaticProl,3.2.2,Win32,60,5ea954d9074a4a02c77dd184,5f1b026ff9f4e82811599350,5f1eebc2c4175b052410d335,,,,,,,,,,,,,8013,1,0,1,0,1,0,,,,,,,500,400,0,const,3.5,120,left,408,77,[],[],350.7,177,-1.5,0,40,0,40,0,1,39,,,,,,,,,
,,,,,,,,,,,,,,,,,,,,5ea954d9074a4a02c77dd184,23,Male,2020-07-27_16h10.47.786,AvatarAutomaticProl,3.2.2,Win32,60,5ea954d9074a4a02c77dd184,5f1b026ff9f4e82811599350,5f1eebc2c4175b052410d335,,,,,,,,,,,,,8480,1,0,1,0,1,0,,,,,,,300,200,0,const,3.5,111,right,-2,62,[],[],200.4,155.5,-1.5,1,40,0,40,0,1,39,,,,,,,,,
,,,,,,,,,,,,,,,,,,,,5ea954d9074a4a02c77dd184,23,Male,2020-07-27_16h10.47.786,AvatarAutomaticProl,3.2.2,Win32,60,5ea954d9074a4a02c77dd184,5f1b026ff9f4e82811599350,5f1eebc2c4175b052410d335,,,,,,,,,,,,,6131,1,0,1,0,1,0,,,,,,,400,300,0,const,3.5,99,right,282,5,[],[],334,282,40.5,1,40,0,40,0,1,39,,,,,,,,,
,,,,,,,,,,,,,,,,,,,,5ea954d9074a4a02c77dd184,23,Male,2020-07-27_16h10.47.786,AvatarAutomaticProl,3.2.2,Win32,60,5ea954d9074a4a02c77dd184,5f1b026ff9f4e82811599350,5f1eebc2c4175b052410d335,,,,,,,,,,,,,12928,1,0,1,0,1,0,,,,,,,500,400,0,const,3.5,148,right,-374,-189,[],[],317.3,-132.5,16,0,40,0,40,0,1,39,,,,,,,,,
,,,,,,,,,,,,,,,,,,,,5ea954d9074a4a02c77dd184,23,Male,2020-07-27_16h10.47.786,AvatarAutomaticProl,3.2.2,Win32,60,5ea954d9074a4a02c77dd184,5f1b026ff9f4e82811599350,5f1eebc2c4175b052410d335,,,,,,,,,,,,,6212,1,0,1,0,1,0,,,,,,,200,100,0,const,3.5,91,left,-4,7,[],[],367.4,-60,-15.5,1,40,0,40,0,1,39,,,,,,,,,
,,,,,,,,,,,,,,,,,,,,5ea954d9074a4a02c77dd184,23,Male,2020-07-27_16h10.47.786,AvatarAutomaticProl,3.2.2,Win32,60,5ea954d9074a4a02c77dd184,5f1b026ff9f4e82811599350,5f1eebc2c4175b052410d335,,,,,,,,,,,,,5948,1,0,1,0,1,0,,,,,,,500,400,0,const,3.5,64,right,406,164,[],[],367.4,406,44,1,40,0,40,0,1,39,,,,,,,,,
,,,,,,,,,,,,,,,,,,,,5ea954d9074a4a02c77dd184,23,Male,2020-07-27_16h10.47.786,AvatarAutomaticProl,3.2.2,Win32,60,5ea954d9074a4a02c77dd184,5f1b026ff9f4e82811599350,5f1eebc2c4175b052410d335,,,,,,,,,,,,,9079,1,0,1,0,1,0,,,,,,,200,100,0,const,3.5,139,left,0,25,[],[],317.3,-59.5,-15.5,1,40,0,40,0,1,39,,,,,,,,,
,,,,,,,,,,,,,,,,,,,,5ea954d9074a4a02c77dd184,23,Male,2020-07-27_16h10.47.786,AvatarAutomaticProl,3.2.2,Win32,60,5ea954d9074a4a02c77dd184,5f1b026ff9f4e82811599350,5f1eebc2c4175b052410d335,,,,,,,,,,,,,7181,1,0,1,0,1,0,,,,,,,300,200,0,const,3.5,62,right,-218,-93,[],[],450.9,-18.5,9,0,40,0,40,0,1,39,,,,,,,,,
,,,,,,,,,,,,,,,,,,,,5ea954d9074a4a02c77dd184,23,Male,2020-07-27_16h10.47.786,AvatarAutomaticProl,3.2.2,Win32,60,5ea954d9074a4a02c77dd184,5f1b026ff9f4e82811599350,5f1eebc2c4175b052410d335,,,,,,,,,,,,,7147,1,0,1,0,1,0,,,,,,,400,300,0,const,3.5,70,right,-294,-101,[],[],317.3,-259,-15.5,0,40,0,40,0,1,39,,,,,,,,,
,,,,,,,,,,,,,,,,,,,,5ea954d9074a4a02c77dd184,23,Male,2020-07-27_16h10.47.786,AvatarAutomaticProl,3.2.2,Win32,60,5ea954d9074a4a02c77dd184,5f1b026ff9f4e82811599350,5f1eebc2c4175b052410d335,,,,,,,,,,,,,7847,1,0,1,0,1,0,,,,,,,200,100,0,const,3.5,78,right,-6,31,[],[],300.6,57,2,1,40,0,40,0,1,39,,,,,,,,,
,,,,,,,,,,,,,,,,,,,,5ea954d9074a4a02c77dd184,23,Male,2020-07-27_16h10.47.786,AvatarAutomaticProl,3.2.2,Win32,60,5ea954d9074a4a02c77dd184,5f1b026ff9f4e82811599350,5f1eebc2c4175b052410d335,,,,,,,,,,,,,4898,1,0,1,0,1,0,,,,,,,400,300,0,const,3.5,63,right,289,-125,[],[],233.8,289,40.5,1,40,0,40,0,1,39,,,,,,,,,
,,,,,,,,,,,,,,,,,,,,5ea954d9074a4a02c77dd184,23,Male,2020-07-27_16h10.47.786,AvatarAutomaticProl,3.2.2,Win32,60,5ea954d9074a4a02c77dd184,5f1b026ff9f4e82811599350,5f1eebc2c4175b052410d335,,,,,,,,,,,,,7080,1,0,1,0,1,0,,,,,,,500,400,0,const,3.5,133,right,399,182,[],[],167,399,44,1,40,0,40,0,1,39,,,,,,,,,
,,,,,,,,,,,,,,,,,,,,5ea954d9074a4a02c77dd184,23,Male,2020-07-27_16h10.47.786,AvatarAutomaticProl,3.2.2,Win32,60,5ea954d9074a4a02c77dd184,5f1b026ff9f4e82811599350,5f1eebc2c4175b052410d335,,,,,,,,,,,,,7264,1,0,1,0,1,0,,,,,,,200,100,0,const,3.5,138,left,-3,31,[],[],450.9,-55.5,2,1,40,0,40,0,1,39,,,,,,,,,
,,,,,,,,,,,,,,,,,,,,5ea954d9074a4a02c77dd184,23,Male,2020-07-27_16h10.47.786,AvatarAutomaticProl,3.2.2,Win32,60,5ea954d9074a4a02c77dd184,5f1b026ff9f4e82811599350,5f1eebc2c4175b052410d335,,,,,,,,,,,,,7614,1,0,1,0,1,0,,,,,,,300,200,0,const,3.5,142,left,201,-6,[],[],350.7,-12.5,-5,0,40,0,40,0,1,39,,,,,,,,,
,,,,,,,,,,,,,,,,,,,,5ea954d9074a4a02c77dd184,23,Male,2020-07-27_16h10.47.786,AvatarAutomaticProl,3.2.2,Win32,60,5ea954d9074a4a02c77dd184,5f1b026ff9f4e82811599350,5f1eebc2c4175b052410d335,,,,,,,,,,,,,5980,1,0,1,0,1,0,,,,,,,300,200,0,const,3.5,119,right,194,-44,[],[],534.4,194,44,1,40,0,40,0,1,39,,,,,,,,,
,,,,,,,,,,,,,,,,,,,,5ea954d9074a4a02c77dd184,23,Male,2020-07-27_16h10.47.786,AvatarAutomaticProl,3.2.2,Win32,60,5ea954d9074a4a02c77dd184,5f1b026ff9f4e82811599350,5f1eebc2c4175b052410d335,,,,,,,,,,,,,18444,1,0,1,0,1,0,,,,,,,500,400,0,const,3.5,114,left,394,165,[],[],384.1,215.5,2,0,40,0,40,0,1,39,,,,,,,,,
,,,,,,,,,,,,,,,,,,,,5ea954d9074a4a02c77dd184,23,Male,2020-07-27_16h10.47.786,AvatarAutomaticProl,3.2.2,Win32,60,5ea954d9074a4a02c77dd184,5f1b026ff9f4e82811599350,5f1eebc2c4175b052410d335,,,,,,,,,,,,,8013,1,0,1,0,1,0,,,,,,,400,300,0,const,3.5,79,right,270,-21,[],[],400.8,270,33.5,1,40,0,40,0,1,39,,,,,,,,,
,,,,,,,,,,,,,,,,,,,,5ea954d9074a4a02c77dd184,23,Male,2020-07-27_16h10.47.786,AvatarAutomaticProl,3.2.2,Win32,60,5ea954d9074a4a02c77dd184,5f1b026ff9f4e82811599350,5f1eebc2c4175b052410d335,,,,,,,,,,,,,5398,1,0,1,0,1,0,,,,,,,300,200,0,const,3.5,112,right,183,58,[],[],217.1,183,40.5,1,40,0,40,0,1,39,,,,,,,,,
,,,,,,,,,,,,,,,,,,,,5ea954d9074a4a02c77dd184,23,Male,2020-07-27_16h10.47.786,AvatarAutomaticProl,3.2.2,Win32,60,5ea954d9074a4a02c77dd184,5f1b026ff9f4e82811599350,5f1eebc2c4175b052410d335,,,,,,,,,,,,,7014,1,0,1,0,1,0,,,,,,,400,300,0,const,3.5,70,right,309,0,[],[],400.8,309,44,1,40,0,40,0,1,39,,,,,,,,,
,,,,,,,,,,,,,,,,,,,,5ea954d9074a4a02c77dd184,23,Male,2020-07-27_16h10.47.786,AvatarAutomaticProl,3.2.2,Win32,60,5ea954d9074a4a02c77dd184,5f1b026ff9f4e82811599350,5f1eebc2c4175b052410d335,,,,,,,,,,,,,6648,1,0,1,0,1,0,,,,,,,200,100,0,const,3.5,136,right,1,8,[],[],450.9,57,-12,1,40,0,40,0,1,39,,,,,,,,,
,,,,,,,,,,,,,,,,,,,,5ea954d9074a4a02c77dd184,23,Male,2020-07-27_16h10.47.786,AvatarAutomaticProl,3.2.2,Win32,60,5ea954d9074a4a02c77dd184,5f1b026ff9f4e82811599350,5f1eebc2c4175b052410d335,,,,,,,,,,,,,5998,1,0,1,0,1,0,,,,,,,400,300,0,const,3.5,96,left,292,89,[],[],467.6,78.5,-1.5,0,40,0,40,0,1,39,,,,,,,,,
,,,,,,,,,,,,,,,,,,,,5ea954d9074a4a02c77dd184,23,Male,2020-07-27_16h10.47.786,AvatarAutomaticProl,3.2.2,Win32,60,5ea954d9074a4a02c77dd184,5f1b026ff9f4e82811599350,5f1eebc2c4175b052410d335,,,,,,,,,,,,,6214,1,0,1,0,1,0,,,,,,,500,400,0,const,3.5,86,right,382,-85,[],[],367.4,382,40.5,1,40,0,40,0,1,39,,,,,,,,,
,,,,,,,,,,,,,,,,,,,,5ea954d9074a4a02c77dd184,23,Male,2020-07-27_16h10.47.786,AvatarAutomaticProl,3.2.2,Win32,60,5ea954d9074a4a02c77dd184,5f1b026ff9f4e82811599350,5f1eebc2c4175b052410d335,,,,,,,,,,,,,6530,1,0,1,0,1,0,,,,,,,400,300,0,const,3.5,114,left,292,38,[],[],300.6,50.5,-8.5,0,40,0,40,0,1,39,,,,,,,,,
,,,,,,,,,,,,,,,,,,,,5ea954d9074a4a02c77dd184,23,Male,2020-07-27_16h10.47.786,AvatarAutomaticProl,3.2.2,Win32,60,5ea954d9074a4a02c77dd184,5f1b026ff9f4e82811599350,5f1eebc2c4175b052410d335,,,,,,,,,,,,,5596,1,0,1,0,1,0,,,,,,,300,200,0,const,3.5,145,right,194,53,[],[],317.3,194,44,1,40,0,40,0,1,39,,,,,,,,,
,,,,,,,,,,,,,,,,,,,,5ea954d9074a4a02c77dd184,23,Male,2020-07-27_16h10.47.786,AvatarAutomaticProl,3.2.2,Win32,60,5ea954d9074a4a02c77dd184,5f1b026ff9f4e82811599350,5f1eebc2c4175b052410d335,,,,,,,,,,,,,6647,1,0,1,0,1,0,,,,,,,300,200,0,const,3.5,126,left,198,-34,[],[],217.1,-64.5,-5,0,40,0,40,0,1,39,,,,,,,,,
,,,,,,,,,,,,,,,,,,,,5ea954d9074a4a02c77dd184,23,Male,2020-07-27_16h10.47.786,AvatarAutomaticProl,3.2.2,Win32,60,5ea954d9074a4a02c77dd184,5f1b026ff9f4e82811599350,5f1eebc2c4175b052410d335,,,,,,,,,,,,,6796,1,0,1,0,1,0,,,,,,,200,100,0,const,3.5,118,left,8,48,[],[],317.3,-58.5,12.5,1,40,0,40,0,1,39,,,,,,,,,
,,,,,,,,,,,,,,,,,,,,5ea954d9074a4a02c77dd184,23,Male,2020-07-27_16h10.47.786,AvatarAutomaticProl,3.2.2,Win32,60,5ea954d9074a4a02c77dd184,5f1b026ff9f4e82811599350,5f1eebc2c4175b052410d335,,,,,,,,,,,,,5464,1,0,1,0,1,0,,,,,,,500,400,0,const,3.5,129,right,398,102,[],[],417.5,398,44,1,40,0,40,0,1,39,,,,,,,,,
,,,,,,,,,,,,,,,,,,,,5ea954d9074a4a02c77dd184,23,Male,2020-07-27_16h10.47.786,AvatarAutomaticProl,3.2.2,Win32,60,5ea954d9074a4a02c77dd184,5f1b026ff9f4e82811599350,5f1eebc2c4175b052410d335,,,,,,,,,,,,,4647,1,0,1,0,1,0,,,,,,,500,400,0,const,3.5,90,right,411,165,[],[],217.1,411,40.5,1,40,0,40,0,1,39,,,,,,,,,
,,,,,,,,,,,,,,,,,,,,5ea954d9074a4a02c77dd184,23,Male,2020-07-27_16h10.47.786,AvatarAutomaticProl,3.2.2,Win32,60,5ea954d9074a4a02c77dd184,5f1b026ff9f4e82811599350,5f1eebc2c4175b052410d335,,,,,,,,,,,,,5581,1,0,1,0,1,0,,,,,,,200,100,0,const,3.5,70,left,-5,3,[],[],417.5,-57.5,9,1,40,0,40,0,1,39,,,,,,,,,
,,,,,,,,,,,,,,,,,,,,5ea954d9074a4a02c77dd184,23,Male,2020-07-27_16h10.47.786,AvatarAutomaticProl,3.2.2,Win32,60,5ea954d9074a4a02c77dd184,5f1b026ff9f4e82811599350,5f1eebc2c4175b052410d335,,,,,,,,,,,,,6464,1,0,1,0,1,0,,,,,,,200,100,0,const,3.5,141,left,6,19,[],[],501,-57,12.5,1,40,0,40,0,1,39,,,,,,,,,
,,,,,,,,,,,,,,,,,,,,5ea954d9074a4a02c77dd184,23,Male,2020-07-27_16h10.47.786,AvatarAutomaticProl,3.2.2,Win32,60,5ea954d9074a4a02c77dd184,5f1b026ff9f4e82811599350,5f1eebc2c4175b052410d335,,,,,,,,,,,,,6779,1,0,1,0,1,0,,,,,,,,,,,,,,,,,,,,,,,,,,,,500,0.98,8,0,8,0,1,7,
,,,,,,,,,,,,,,,,,,,,5ea954d9074a4a02c77dd184,23,Male,2020-07-27_16h10.47.786,AvatarAutomaticProl,3.2.2,Win32,60,5ea954d9074a4a02c77dd184,5f1b026ff9f4e82811599350,5f1eebc2c4175b052410d335,,,,,,,,,,,,,3782,1,0,1,0,1,0,,,,,,,,,,,,,,,,,,,,,,,,,,,,500,0.973333333,8,0,8,0,1,7,
,,,,,,,,,,,,,,,,,,,,5ea954d9074a4a02c77dd184,23,Male,2020-07-27_16h10.47.786,AvatarAutomaticProl,3.2.2,Win32,60,5ea954d9074a4a02c77dd184,5f1b026ff9f4e82811599350,5f1eebc2c4175b052410d335,,,,,,,,,,,,,2631,1,0,1,0,1,0,,,,,,,,,,,,,,,,,,,,,,,,,,,,200,-0.94,8,0,8,0,1,7,
,,,,,,,,,,,,,,,,,,,,5ea954d9074a4a02c77dd184,23,Male,2020-07-27_16h10.47.786,AvatarAutomaticProl,3.2.2,Win32,60,5ea954d9074a4a02c77dd184,5f1b026ff9f4e82811599350,5f1eebc2c4175b052410d335,,,,,,,,,,,,,3531,1,0,1,0,1,0,,,,,,,,,,,,,,,,,,,,,,,,,,,,300,-0.753333333,8,0,8,0,1,7,
,,,,,,,,,,,,,,,,,,,,5ea954d9074a4a02c77dd184,23,Male,2020-07-27_16h10.47.786,AvatarAutomaticProl,3.2.2,Win32,60,5ea954d9074a4a02c77dd184,5f1b026ff9f4e82811599350,5f1eebc2c4175b052410d335,,,,,,,,,,,,,7446,1,0,1,0,1,0,,,,,,,,,,,,,,,,,,,,,,,,,,,,400,0.353333333,8,0,8,0,1,7,
,,,,,,,,,,,,,,,,,,,,5ea954d9074a4a02c77dd184,23,Male,2020-07-27_16h10.47.786,AvatarAutomaticProl,3.2.2,Win32,60,5ea954d9074a4a02c77dd184,5f1b026ff9f4e82811599350,5f1eebc2c4175b052410d335,,,,,,,,,,,,,3664,1,0,1,0,1,0,,,,,,,,,,,,,,,,,,,,,,,,,,,,400,0.553333333,8,0,8,0,1,7,
,,,,,,,,,,,,,,,,,,,,5ea954d9074a4a02c77dd184,23,Male,2020-07-27_16h10.47.786,AvatarAutomaticProl,3.2.2,Win32,60,5ea954d9074a4a02c77dd184,5f1b026ff9f4e82811599350,5f1eebc2c4175b052410d335,,,,,,,,,,,,,2915,1,0,1,0,1,0,,,,,,,,,,,,,,,,,,,,,,,,,,,,200,-0.98,8,0,8,0,1,7,
,,,,,,,,,,,,,,,,,,,,5ea954d9074a4a02c77dd184,23,Male,2020-07-27_16h10.47.786,AvatarAutomaticProl,3.2.2,Win32,60,5ea954d9074a4a02c77dd184,5f1b026ff9f4e82811599350,5f1eebc2c4175b052410d335,,,,,,,,,,,,,2983,1,0,1,0,1,0,,,,,,,,,,,,,,,,,,,,,,,,,,,,300,-0.253333333,8,0,8,0,1,7,
,,,,,,,,,,,,,,,,,,,,5ea954d9074a4a02c77dd184,23,Male,2020-07-27_16h10.47.786,AvatarAutomaticProl,3.2.2,Win32,60,5ea954d9074a4a02c77dd184,5f1b026ff9f4e82811599350,5f1eebc2c4175b052410d335,,,,,,,,,,,,,,,,,,,,,,,,,,,,,,,,,,,,,,,,,,,,,,,,,,,,,,,1428128
