Browser,true_x_res,true_y_res,x_adjustment,y_adjustment,Params_TravelTime,Params_yOffset,Params_Reach,Params_ScreenWidth,Params_ScreenHeight,Params_Hz,Params_HzScale,Params_conf_linewidth,params_consent,ConsentLoop.thisRepN,ConsentLoop.thisTrialN,ConsentLoop.thisN,ConsentLoop.thisIndex,ConsentLoop.ran,ConsentLoop.order,participant,Age,Gender,date,expName,psychopyVersion,OS,frameRate,PROLIFIC_PID,STUDY_ID,SESSION_ID,Demo_speedCond,Demo_delta,Demo_xposTarget,Demo_yposTarget,Demo_Delay,Demo_AvSpeed,Demo_Success,Demo_motion,Demo_Click,Demo_RTms,Demo_finalX,Demo_finalY,Trial_duration,BlockLoop.thisRepN,BlockLoop.thisTrialN,BlockLoop.thisN,BlockLoop.thisIndex,BlockLoop.ran,BlockLoop.order,DemoLoop.thisRepN,DemoLoop.thisTrialN,DemoLoop.thisN,DemoLoop.thisIndex,DemoLoop.ran,DemoLoop.order,Decision_Delta,Decision_xposTarget,Decision_yposTarget,Decision_SpeedCond,Decision_AvSpeed,Decision_delay,Decision_targetSide,Decision_placement,Decision_initplace,Decision_Driving,Decision_Click,Decision_RTms,Decision_finalX,Decision_finalY,Decision_success,DecisionTrialLoop.thisRepN,DecisionTrialLoop.thisTrialN,DecisionTrialLoop.thisN,DecisionTrialLoop.thisIndex,DecisionTrialLoop.ran,DecisionTrialLoop.order,Confidence_Delta,Confidence_resp,ConfidenceLoop.thisRepN,ConfidenceLoop.thisTrialN,ConfidenceLoop.thisN,ConfidenceLoop.thisIndex,ConfidenceLoop.ran,ConfidenceLoop.order,exp_duration
Chrome,1280,666,1,1,120,100,45,1200,600,60,1,300,Agreed,3,0,3,0,1,2,5eac7cc25fe9ad2d823fab6a,21,Male,2020-07-27_16h59.54.926,AvatarAutomaticProl,3.2.2,MacIntel,60,5eac7cc25fe9ad2d823fab6a,5f1b026ff9f4e82811599350,5f1eebd4f54a91054450861f,,,,,,,,,,,,,,,,,,,,,,,,,,,,,,,,,,,,,,,,,,,,,,,,,,,,,,,
,,,,,,,,,,,,,Agreed,3,0,3,0,1,2,5eac7cc25fe9ad2d823fab6a,21,Male,2020-07-27_16h59.54.926,AvatarAutomaticProl,3.2.2,MacIntel,60,5eac7cc25fe9ad2d823fab6a,5f1b026ff9f4e82811599350,5f1eebd4f54a91054450861f,,,,,,,,,,,,,,,,,,,,,,,,,,,,,,,,,,,,,,,,,,,,,,,,,,,,,,,
,,,,,,,,,,,,,Agreed,3,0,3,0,1,2,5eac7cc25fe9ad2d823fab6a,21,Male,2020-07-27_16h59.54.926,AvatarAutomaticProl,3.2.2,MacIntel,60,5eac7cc25fe9ad2d823fab6a,5f1b026ff9f4e82811599350,5f1eebd4f54a91054450861f,,,,,,,,,,,,,,,,,,,,,,,,,,,,,,,,,,,,,,,,,,,,,,,,,,,,,,,
,,,,,,,,,,,,,,,,,,,,5eac7cc25fe9ad2d823fab6a,21,Male,2020-07-27_16h59.54.926,AvatarAutomaticProl,3.2.2,MacIntel,60,5eac7cc25fe9ad2d823fab6a,5f1b026ff9f4e82811599350,5f1eebd4f54a91054450861f,const,500,400,0,100,3.5,0,[],[],283.9,220.5,9,9570,1,0,1,0,1,0,48,0,48,0,1,47,,,,,,,,,,,,,,,,,,,,,,,,,,,,,,
,,,,,,,,,,,,,,,,,,,,5eac7cc25fe9ad2d823fab6a,21,Male,2020-07-27_16h59.54.926,AvatarAutomaticProl,3.2.2,MacIntel,60,5eac7cc25fe9ad2d823fab6a,5f1b026ff9f4e82811599350,5f1eebd4f54a91054450861f,,200,-100,0,110,3.5,1,[],[],517.7,-56,2,7335,1,0,1,0,1,0,48,0,48,0,1,47,,,,,,,,,,,,,,,,,,,,,,,,,,,,,,
,,,,,,,,,,,,,,,,,,,,5eac7cc25fe9ad2d823fab6a,21,Male,2020-07-27_16h59.54.926,AvatarAutomaticProl,3.2.2,MacIntel,60,5eac7cc25fe9ad2d823fab6a,5f1b026ff9f4e82811599350,5f1eebd4f54a91054450861f,,200,100,0,132,3.5,1,[],[],334,56,2,6366,1,0,1,0,1,0,48,0,48,0,1,47,,,,,,,,,,,,,,,,,,,,,,,,,,,,,,
,,,,,,,,,,,,,,,,,,,,5eac7cc25fe9ad2d823fab6a,21,Male,2020-07-27_16h59.54.926,AvatarAutomaticProl,3.2.2,MacIntel,60,5eac7cc25fe9ad2d823fab6a,5f1b026ff9f4e82811599350,5f1eebd4f54a91054450861f,,400,-300,0,111,3.5,0,[],[],233.8,-248.5,-19,7904,1,0,1,0,1,0,48,0,48,0,1,47,,,,,,,,,,,,,,,,,,,,,,,,,,,,,,
,,,,,,,,,,,,,,,,,,,,5eac7cc25fe9ad2d823fab6a,21,Male,2020-07-27_16h59.54.926,AvatarAutomaticProl,3.2.2,MacIntel,60,5eac7cc25fe9ad2d823fab6a,5f1b026ff9f4e82811599350,5f1eebd4f54a91054450861f,,300,200,0,64,3.5,0,[],[],484.3,3.5,19.5,6567,1,0,1,0,1,0,48,0,48,0,1,47,,,,,,,,,,,,,,,,,,,,,,,,,,,,,,
,,,,,,,,,,,,,,,,,,,,5eac7cc25fe9ad2d823fab6a,21,Male,2020-07-27_16h59.54.926,AvatarAutomaticProl,3.2.2,MacIntel,60,5eac7cc25fe9ad2d823fab6a,5f1b026ff9f4e82811599350,5f1eebd4f54a91054450861f,,500,400,0,132,3.5,0,[],[],350.7,238,-5,12539,1,0,1,0,1,0,48,0,48,0,1,47,,,,,,,,,,,,,,,,,,,,,,,,,,,,,,
,,,,,,,,,,,,,,,,,,,,5eac7cc25fe9ad2d823fab6a,21,Male,2020-07-27_16h59.54.926,AvatarAutomaticProl,3.2.2,MacIntel,60,5eac7cc25fe9ad2d823fab6a,5f1b026ff9f4e82811599350,5f1eebd4f54a91054450861f,,400,-300,0,149,3.5,1,[],[],250.5,-259,12.5,7817,1,0,1,0,1,0,48,0,48,0,1,47,,,,,,,,,,,,,,,,,,,,,,,,,,,,,,
,,,,,,,,,,,,,,,,,,,,5eac7cc25fe9ad2d823fab6a,21,Male,2020-07-27_16h59.54.926,AvatarAutomaticProl,3.2.2,MacIntel,60,5eac7cc25fe9ad2d823fab6a,5f1b026ff9f4e82811599350,5f1eebd4f54a91054450861f,,200,100,0,132,3.5,1,[],[],384.1,56,5.5,4891,1,0,1,0,1,0,48,0,48,0,1,47,,,,,,,,,,,,,,,,,,,,,,,,,,,,,,
,,,,,,,,,,,,,,,,,,,,5eac7cc25fe9ad2d823fab6a,21,Male,2020-07-27_16h59.54.926,AvatarAutomaticProl,3.2.2,MacIntel,60,5eac7cc25fe9ad2d823fab6a,5f1b026ff9f4e82811599350,5f1eebd4f54a91054450861f,,500,-400,0,149,3.5,0,[],[],217.1,-280,5.5,7209,1,0,1,0,1,0,48,0,48,0,1,47,,,,,,,,,,,,,,,,,,,,,,,,,,,,,,
,,,,,,,,,,,,,,,,,,,,5eac7cc25fe9ad2d823fab6a,21,Male,2020-07-27_16h59.54.926,AvatarAutomaticProl,3.2.2,MacIntel,60,5eac7cc25fe9ad2d823fab6a,5f1b026ff9f4e82811599350,5f1eebd4f54a91054450861f,,400,300,0,98,3.5,0,[],[],334,255.5,12.5,6547,1,0,1,0,1,0,48,0,48,0,1,47,,,,,,,,,,,,,,,,,,,,,,,,,,,,,,
,,,,,,,,,,,,,,,,,,,,5eac7cc25fe9ad2d823fab6a,21,Male,2020-07-27_16h59.54.926,AvatarAutomaticProl,3.2.2,MacIntel,60,5eac7cc25fe9ad2d823fab6a,5f1b026ff9f4e82811599350,5f1eebd4f54a91054450861f,,200,-100,0,138,3.5,1,[],[],367.4,-56,5.5,5798,1,0,1,0,1,0,48,0,48,0,1,47,,,,,,,,,,,,,,,,,,,,,,,,,,,,,,
,,,,,,,,,,,,,,,,,,,,5eac7cc25fe9ad2d823fab6a,21,Male,2020-07-27_16h59.54.926,AvatarAutomaticProl,3.2.2,MacIntel,60,5eac7cc25fe9ad2d823fab6a,5f1b026ff9f4e82811599350,5f1eebd4f54a91054450861f,,500,400,0,129,3.5,0,[],[],334,269.5,30,6267,1,0,1,0,1,0,48,0,48,0,1,47,,,,,,,,,,,,,,,,,,,,,,,,,,,,,,
,,,,,,,,,,,,,,,,,,,,5eac7cc25fe9ad2d823fab6a,21,Male,2020-07-27_16h59.54.926,AvatarAutomaticProl,3.2.2,MacIntel,60,5eac7cc25fe9ad2d823fab6a,5f1b026ff9f4e82811599350,5f1eebd4f54a91054450861f,,300,200,0,82,3.5,1,[],[],233.8,157.5,2,5266,1,0,1,0,1,0,48,0,48,0,1,47,,,,,,,,,,,,,,,,,,,,,,,,,,,,,,
,,,,,,,,,,,,,,,,,,,,5eac7cc25fe9ad2d823fab6a,21,Male,2020-07-27_16h59.54.926,AvatarAutomaticProl,3.2.2,MacIntel,60,5eac7cc25fe9ad2d823fab6a,5f1b026ff9f4e82811599350,5f1eebd4f54a91054450861f,,300,200,0,108,3.5,1,[],[],367.4,157.5,5.5,5627,1,0,1,0,1,0,48,0,48,0,1,47,,,,,,,,,,,,,,,,,,,,,,,,,,,,,,
,,,,,,,,,,,,,,,,,,,,5eac7cc25fe9ad2d823fab6a,21,Male,2020-07-27_16h59.54.926,AvatarAutomaticProl,3.2.2,MacIntel,60,5eac7cc25fe9ad2d823fab6a,5f1b026ff9f4e82811599350,5f1eebd4f54a91054450861f,,200,-100,0,75,3.5,1,[],[],684.7,-56,9,5711,1,0,1,0,1,0,48,0,48,0,1,47,,,,,,,,,,,,,,,,,,,,,,,,,,,,,,
,,,,,,,,,,,,,,,,,,,,5eac7cc25fe9ad2d823fab6a,21,Male,2020-07-27_16h59.54.926,AvatarAutomaticProl,3.2.2,MacIntel,60,5eac7cc25fe9ad2d823fab6a,5f1b026ff9f4e82811599350,5f1eebd4f54a91054450861f,,200,-100,0,103,3.5,1,[],[],283.9,-59.5,16,7124,1,0,1,0,1,0,48,0,48,0,1,47,,,,,,,,,,,,,,,,,,,,,,,,,,,,,,
,,,,,,,,,,,,,,,,,,,,5eac7cc25fe9ad2d823fab6a,21,Male,2020-07-27_16h59.54.926,AvatarAutomaticProl,3.2.2,MacIntel,60,5eac7cc25fe9ad2d823fab6a,5f1b026ff9f4e82811599350,5f1eebd4f54a91054450861f,,300,-200,0,130,3.5,0,[],[],317.3,-3.5,19.5,7108,1,0,1,0,1,0,48,0,48,0,1,47,,,,,,,,,,,,,,,,,,,,,,,,,,,,,,
,,,,,,,,,,,,,,,,,,,,5eac7cc25fe9ad2d823fab6a,21,Male,2020-07-27_16h59.54.926,AvatarAutomaticProl,3.2.2,MacIntel,60,5eac7cc25fe9ad2d823fab6a,5f1b026ff9f4e82811599350,5f1eebd4f54a91054450861f,,400,-300,0,87,3.5,0,[],[],283.9,-248.5,9,5298,1,0,1,0,1,0,48,0,48,0,1,47,,,,,,,,,,,,,,,,,,,,,,,,,,,,,,
,,,,,,,,,,,,,,,,,,,,5eac7cc25fe9ad2d823fab6a,21,Male,2020-07-27_16h59.54.926,AvatarAutomaticProl,3.2.2,MacIntel,60,5eac7cc25fe9ad2d823fab6a,5f1b026ff9f4e82811599350,5f1eebd4f54a91054450861f,,400,-300,0,107,3.5,0,[],[],567.8,-182,16,5737,1,0,1,0,1,0,48,0,48,0,1,47,,,,,,,,,,,,,,,,,,,,,,,,,,,,,,
,,,,,,,,,,,,,,,,,,,,5eac7cc25fe9ad2d823fab6a,21,Male,2020-07-27_16h59.54.926,AvatarAutomaticProl,3.2.2,MacIntel,60,5eac7cc25fe9ad2d823fab6a,5f1b026ff9f4e82811599350,5f1eebd4f54a91054450861f,,300,200,0,139,3.5,1,[],[],334,157.5,5.5,6277,1,0,1,0,1,0,48,0,48,0,1,47,,,,,,,,,,,,,,,,,,,,,,,,,,,,,,
,,,,,,,,,,,,,,,,,,,,5eac7cc25fe9ad2d823fab6a,21,Male,2020-07-27_16h59.54.926,AvatarAutomaticProl,3.2.2,MacIntel,60,5eac7cc25fe9ad2d823fab6a,5f1b026ff9f4e82811599350,5f1eebd4f54a91054450861f,,300,200,0,67,3.5,1,[],[],267.2,164.5,23,4259,1,0,1,0,1,0,48,0,48,0,1,47,,,,,,,,,,,,,,,,,,,,,,,,,,,,,,
,,,,,,,,,,,,,,,,,,,,5eac7cc25fe9ad2d823fab6a,21,Male,2020-07-27_16h59.54.926,AvatarAutomaticProl,3.2.2,MacIntel,60,5eac7cc25fe9ad2d823fab6a,5f1b026ff9f4e82811599350,5f1eebd4f54a91054450861f,,400,-300,0,89,3.5,0,[],[],501,-203,-5,5424,1,0,1,0,1,0,48,0,48,0,1,47,,,,,,,,,,,,,,,,,,,,,,,,,,,,,,
,,,,,,,,,,,,,,,,,,,,5eac7cc25fe9ad2d823fab6a,21,Male,2020-07-27_16h59.54.926,AvatarAutomaticProl,3.2.2,MacIntel,60,5eac7cc25fe9ad2d823fab6a,5f1b026ff9f4e82811599350,5f1eebd4f54a91054450861f,,300,200,0,98,3.5,1,[],[],267.2,157.5,-5,4572,1,0,1,0,1,0,48,0,48,0,1,47,,,,,,,,,,,,,,,,,,,,,,,,,,,,,,
,,,,,,,,,,,,,,,,,,,,5eac7cc25fe9ad2d823fab6a,21,Male,2020-07-27_16h59.54.926,AvatarAutomaticProl,3.2.2,MacIntel,60,5eac7cc25fe9ad2d823fab6a,5f1b026ff9f4e82811599350,5f1eebd4f54a91054450861f,,400,-300,0,67,3.5,1,[],[],200.4,-266,26.5,6717,1,0,1,0,1,0,48,0,48,0,1,47,,,,,,,,,,,,,,,,,,,,,,,,,,,,,,
,,,,,,,,,,,,,,,,,,,,5eac7cc25fe9ad2d823fab6a,21,Male,2020-07-27_16h59.54.926,AvatarAutomaticProl,3.2.2,MacIntel,60,5eac7cc25fe9ad2d823fab6a,5f1b026ff9f4e82811599350,5f1eebd4f54a91054450861f,,300,200,0,142,3.5,1,[],[],417.5,157.5,5.5,6331,1,0,1,0,1,0,48,0,48,0,1,47,,,,,,,,,,,,,,,,,,,,,,,,,,,,,,
,,,,,,,,,,,,,,,,,,,,5eac7cc25fe9ad2d823fab6a,21,Male,2020-07-27_16h59.54.926,AvatarAutomaticProl,3.2.2,MacIntel,60,5eac7cc25fe9ad2d823fab6a,5f1b026ff9f4e82811599350,5f1eebd4f54a91054450861f,,200,100,0,108,3.5,1,[],[],217.1,56,-8.5,8240,1,0,1,0,1,0,48,0,48,0,1,47,,,,,,,,,,,,,,,,,,,,,,,,,,,,,,
,,,,,,,,,,,,,,,,,,,,5eac7cc25fe9ad2d823fab6a,21,Male,2020-07-27_16h59.54.926,AvatarAutomaticProl,3.2.2,MacIntel,60,5eac7cc25fe9ad2d823fab6a,5f1b026ff9f4e82811599350,5f1eebd4f54a91054450861f,,300,200,0,139,3.5,1,[],[],434.2,157.5,5.5,9119,1,0,1,0,1,0,48,0,48,0,1,47,,,,,,,,,,,,,,,,,,,,,,,,,,,,,,
,,,,,,,,,,,,,,,,,,,,5eac7cc25fe9ad2d823fab6a,21,Male,2020-07-27_16h59.54.926,AvatarAutomaticProl,3.2.2,MacIntel,60,5eac7cc25fe9ad2d823fab6a,5f1b026ff9f4e82811599350,5f1eebd4f54a91054450861f,,400,300,0,115,3.5,1,[],[],217.1,259,12.5,6833,1,0,1,0,1,0,48,0,48,0,1,47,,,,,,,,,,,,,,,,,,,,,,,,,,,,,,
,,,,,,,,,,,,,,,,,,,,5eac7cc25fe9ad2d823fab6a,21,Male,2020-07-27_16h59.54.926,AvatarAutomaticProl,3.2.2,MacIntel,60,5eac7cc25fe9ad2d823fab6a,5f1b026ff9f4e82811599350,5f1eebd4f54a91054450861f,,400,300,0,122,3.5,0,[],[],334,245,2,7323,1,0,1,0,1,0,48,0,48,0,1,47,,,,,,,,,,,,,,,,,,,,,,,,,,,,,,
,,,,,,,,,,,,,,,,,,,,5eac7cc25fe9ad2d823fab6a,21,Male,2020-07-27_16h59.54.926,AvatarAutomaticProl,3.2.2,MacIntel,60,5eac7cc25fe9ad2d823fab6a,5f1b026ff9f4e82811599350,5f1eebd4f54a91054450861f,,300,-200,0,141,3.5,1,[],[],283.9,-157.5,-1.5,5901,1,0,1,0,1,0,48,0,48,0,1,47,,,,,,,,,,,,,,,,,,,,,,,,,,,,,,
,,,,,,,,,,,,,,,,,,,,5eac7cc25fe9ad2d823fab6a,21,Male,2020-07-27_16h59.54.926,AvatarAutomaticProl,3.2.2,MacIntel,60,5eac7cc25fe9ad2d823fab6a,5f1b026ff9f4e82811599350,5f1eebd4f54a91054450861f,,400,-300,0,81,3.5,0,[],[],467.6,-238,19.5,6767,1,0,1,0,1,0,48,0,48,0,1,47,,,,,,,,,,,,,,,,,,,,,,,,,,,,,,
,,,,,,,,,,,,,,,,,,,,5eac7cc25fe9ad2d823fab6a,21,Male,2020-07-27_16h59.54.926,AvatarAutomaticProl,3.2.2,MacIntel,60,5eac7cc25fe9ad2d823fab6a,5f1b026ff9f4e82811599350,5f1eebd4f54a91054450861f,,200,-100,0,74,3.5,1,[],[],384.1,-59.5,-15.5,4760,1,0,1,0,1,0,48,0,48,0,1,47,,,,,,,,,,,,,,,,,,,,,,,,,,,,,,
,,,,,,,,,,,,,,,,,,,,5eac7cc25fe9ad2d823fab6a,21,Male,2020-07-27_16h59.54.926,AvatarAutomaticProl,3.2.2,MacIntel,60,5eac7cc25fe9ad2d823fab6a,5f1b026ff9f4e82811599350,5f1eebd4f54a91054450861f,,500,-400,0,127,3.5,0,[],[],484.3,-189,2,6965,1,0,1,0,1,0,48,0,48,0,1,47,,,,,,,,,,,,,,,,,,,,,,,,,,,,,,
,,,,,,,,,,,,,,,,,,,,5eac7cc25fe9ad2d823fab6a,21,Male,2020-07-27_16h59.54.926,AvatarAutomaticProl,3.2.2,MacIntel,60,5eac7cc25fe9ad2d823fab6a,5f1b026ff9f4e82811599350,5f1eebd4f54a91054450861f,,400,300,0,81,3.5,1,[],[],267.2,255.5,5.5,12109,1,0,1,0,1,0,48,0,48,0,1,47,,,,,,,,,,,,,,,,,,,,,,,,,,,,,,
,,,,,,,,,,,,,,,,,,,,5eac7cc25fe9ad2d823fab6a,21,Male,2020-07-27_16h59.54.926,AvatarAutomaticProl,3.2.2,MacIntel,60,5eac7cc25fe9ad2d823fab6a,5f1b026ff9f4e82811599350,5f1eebd4f54a91054450861f,,500,-400,0,95,3.5,0,[],[],350.7,-234.5,-8.5,9124,1,0,1,0,1,0,48,0,48,0,1,47,,,,,,,,,,,,,,,,,,,,,,,,,,,,,,
,,,,,,,,,,,,,,,,,,,,5eac7cc25fe9ad2d823fab6a,21,Male,2020-07-27_16h59.54.926,AvatarAutomaticProl,3.2.2,MacIntel,60,5eac7cc25fe9ad2d823fab6a,5f1b026ff9f4e82811599350,5f1eebd4f54a91054450861f,,500,-400,0,126,3.5,0,[],[],300.6,-269.5,26.5,7324,1,0,1,0,1,0,48,0,48,0,1,47,,,,,,,,,,,,,,,,,,,,,,,,,,,,,,
,,,,,,,,,,,,,,,,,,,,5eac7cc25fe9ad2d823fab6a,21,Male,2020-07-27_16h59.54.926,AvatarAutomaticProl,3.2.2,MacIntel,60,5eac7cc25fe9ad2d823fab6a,5f1b026ff9f4e82811599350,5f1eebd4f54a91054450861f,,400,300,0,113,3.5,0,[],[],350.7,241.5,9,7333,1,0,1,0,1,0,48,0,48,0,1,47,,,,,,,,,,,,,,,,,,,,,,,,,,,,,,
,,,,,,,,,,,,,,,,,,,,5eac7cc25fe9ad2d823fab6a,21,Male,2020-07-27_16h59.54.926,AvatarAutomaticProl,3.2.2,MacIntel,60,5eac7cc25fe9ad2d823fab6a,5f1b026ff9f4e82811599350,5f1eebd4f54a91054450861f,,500,-400,0,85,3.5,0,[],[],617.9,-140,-1.5,8677,1,0,1,0,1,0,48,0,48,0,1,47,,,,,,,,,,,,,,,,,,,,,,,,,,,,,,
,,,,,,,,,,,,,,,,,,,,5eac7cc25fe9ad2d823fab6a,21,Male,2020-07-27_16h59.54.926,AvatarAutomaticProl,3.2.2,MacIntel,60,5eac7cc25fe9ad2d823fab6a,5f1b026ff9f4e82811599350,5f1eebd4f54a91054450861f,,500,-400,0,138,3.5,0,[],[],267.2,-231,-5,9085,1,0,1,0,1,0,48,0,48,0,1,47,,,,,,,,,,,,,,,,,,,,,,,,,,,,,,
,,,,,,,,,,,,,,,,,,,,5eac7cc25fe9ad2d823fab6a,21,Male,2020-07-27_16h59.54.926,AvatarAutomaticProl,3.2.2,MacIntel,60,5eac7cc25fe9ad2d823fab6a,5f1b026ff9f4e82811599350,5f1eebd4f54a91054450861f,,500,400,0,93,3.5,0,[],[],517.7,192.5,-1.5,5819,1,0,1,0,1,0,48,0,48,0,1,47,,,,,,,,,,,,,,,,,,,,,,,,,,,,,,
,,,,,,,,,,,,,,,,,,,,5eac7cc25fe9ad2d823fab6a,21,Male,2020-07-27_16h59.54.926,AvatarAutomaticProl,3.2.2,MacIntel,60,5eac7cc25fe9ad2d823fab6a,5f1b026ff9f4e82811599350,5f1eebd4f54a91054450861f,,200,100,0,121,3.5,1,[],[],350.7,63,-22.5,4787,1,0,1,0,1,0,48,0,48,0,1,47,,,,,,,,,,,,,,,,,,,,,,,,,,,,,,
,,,,,,,,,,,,,,,,,,,,5eac7cc25fe9ad2d823fab6a,21,Male,2020-07-27_16h59.54.926,AvatarAutomaticProl,3.2.2,MacIntel,60,5eac7cc25fe9ad2d823fab6a,5f1b026ff9f4e82811599350,5f1eebd4f54a91054450861f,,200,-100,0,146,3.5,1,[],[],367.4,-59.5,-15.5,5536,1,0,1,0,1,0,48,0,48,0,1,47,,,,,,,,,,,,,,,,,,,,,,,,,,,,,,
,,,,,,,,,,,,,,,,,,,,5eac7cc25fe9ad2d823fab6a,21,Male,2020-07-27_16h59.54.926,AvatarAutomaticProl,3.2.2,MacIntel,60,5eac7cc25fe9ad2d823fab6a,5f1b026ff9f4e82811599350,5f1eebd4f54a91054450861f,,300,200,0,139,3.5,1,[],[],300.6,157.5,2,6311,1,0,1,0,1,0,48,0,48,0,1,47,,,,,,,,,,,,,,,,,,,,,,,,,,,,,,
,,,,,,,,,,,,,,,,,,,,5eac7cc25fe9ad2d823fab6a,21,Male,2020-07-27_16h59.54.926,AvatarAutomaticProl,3.2.2,MacIntel,60,5eac7cc25fe9ad2d823fab6a,5f1b026ff9f4e82811599350,5f1eebd4f54a91054450861f,,200,100,0,107,3.5,1,[],[],350.7,56,5.5,5035,1,0,1,0,1,0,48,0,48,0,1,47,,,,,,,,,,,,,,,,,,,,,,,,,,,,,,
,,,,,,,,,,,,,,,,,,,,5eac7cc25fe9ad2d823fab6a,21,Male,2020-07-27_16h59.54.926,AvatarAutomaticProl,3.2.2,MacIntel,60,5eac7cc25fe9ad2d823fab6a,5f1b026ff9f4e82811599350,5f1eebd4f54a91054450861f,,500,400,0,125,3.5,0,[],[],267.2,227.5,-5,6320,1,0,1,0,1,0,48,0,48,0,1,47,,,,,,,,,,,,,,,,,,,,,,,,,,,,,,
,,,,,,,,,,,,,,,,,,,,5eac7cc25fe9ad2d823fab6a,21,Male,2020-07-27_16h59.54.926,AvatarAutomaticProl,3.2.2,MacIntel,60,5eac7cc25fe9ad2d823fab6a,5f1b026ff9f4e82811599350,5f1eebd4f54a91054450861f,,200,-100,0,110,3.5,1,[],[],283.9,-59.5,12.5,7234,1,0,1,0,1,0,48,0,48,0,1,47,,,,,,,,,,,,,,,,,,,,,,,,,,,,,,
,,,,,,,,,,,,,,,,,,,,5eac7cc25fe9ad2d823fab6a,21,Male,2020-07-27_16h59.54.926,AvatarAutomaticProl,3.2.2,MacIntel,60,5eac7cc25fe9ad2d823fab6a,5f1b026ff9f4e82811599350,5f1eebd4f54a91054450861f,,500,400,0,117,3.5,0,[],[],434.2,220.5,9,6227,1,0,1,0,1,0,48,0,48,0,1,47,,,,,,,,,,,,,,,,,,,,,,,,,,,,,,
,,,,,,,,,,,,,,,,,,,,5eac7cc25fe9ad2d823fab6a,21,Male,2020-07-27_16h59.54.926,AvatarAutomaticProl,3.2.2,MacIntel,60,5eac7cc25fe9ad2d823fab6a,5f1b026ff9f4e82811599350,5f1eebd4f54a91054450861f,,300,-200,0,108,3.5,1,[],[],367.4,-157.5,-5,5095,1,0,1,0,1,0,48,0,48,0,1,47,,,,,,,,,,,,,,,,,,,,,,,,,,,,,,
,,,,,,,,,,,,,,,,,,,,5eac7cc25fe9ad2d823fab6a,21,Male,2020-07-27_16h59.54.926,AvatarAutomaticProl,3.2.2,MacIntel,60,5eac7cc25fe9ad2d823fab6a,5f1b026ff9f4e82811599350,5f1eebd4f54a91054450861f,,,,,,,,,,,,,12443,1,0,1,0,1,0,,,,,,,500,400,0,const,3.5,141,right,385.6210938,77,[],[],350.7,385.6210938,40.5,1,40,0,40,0,1,39,,,,,,,,,
,,,,,,,,,,,,,,,,,,,,5eac7cc25fe9ad2d823fab6a,21,Male,2020-07-27_16h59.54.926,AvatarAutomaticProl,3.2.2,MacIntel,60,5eac7cc25fe9ad2d823fab6a,5f1b026ff9f4e82811599350,5f1eebd4f54a91054450861f,,,,,,,,,,,,,12100,1,0,1,0,1,0,,,,,,,500,400,0,const,3.5,82,right,-385.3007813,-69,[],[],384.1,-192.8007813,9,0,40,0,40,0,1,39,,,,,,,,,
,,,,,,,,,,,,,,,,,,,,5eac7cc25fe9ad2d823fab6a,21,Male,2020-07-27_16h59.54.926,AvatarAutomaticProl,3.2.2,MacIntel,60,5eac7cc25fe9ad2d823fab6a,5f1b026ff9f4e82811599350,5f1eebd4f54a91054450861f,,,,,,,,,,,,,8331,1,0,1,0,1,0,,,,,,,400,300,0,const,3.5,93,left,-288.4140625,-142,[],[],334,-288.4140625,40.5,1,40,0,40,0,1,39,,,,,,,,,
,,,,,,,,,,,,,,,,,,,,5eac7cc25fe9ad2d823fab6a,21,Male,2020-07-27_16h59.54.926,AvatarAutomaticProl,3.2.2,MacIntel,60,5eac7cc25fe9ad2d823fab6a,5f1b026ff9f4e82811599350,5f1eebd4f54a91054450861f,,,,,,,,,,,,,11646,1,0,1,0,1,0,,,,,,,200,100,0,const,3.5,130,left,-11.0703125,-37,[],[],367.4,-60.0703125,19.5,1,40,0,40,0,1,39,,,,,,,,,
,,,,,,,,,,,,,,,,,,,,5eac7cc25fe9ad2d823fab6a,21,Male,2020-07-27_16h59.54.926,AvatarAutomaticProl,3.2.2,MacIntel,60,5eac7cc25fe9ad2d823fab6a,5f1b026ff9f4e82811599350,5f1eebd4f54a91054450861f,,,,,,,,,,,,,5894,1,0,1,0,1,0,,,,,,,200,100,0,const,3.5,65,right,-1.1328125,-38,[],[],350.7,58.3671875,16,1,40,0,40,0,1,39,,,,,,,,,
,,,,,,,,,,,,,,,,,,,,5eac7cc25fe9ad2d823fab6a,21,Male,2020-07-27_16h59.54.926,AvatarAutomaticProl,3.2.2,MacIntel,60,5eac7cc25fe9ad2d823fab6a,5f1b026ff9f4e82811599350,5f1eebd4f54a91054450861f,,,,,,,,,,,,,5762,1,0,1,0,1,0,,,,,,,300,200,0,const,3.5,69,left,-11.296875,61,[],[],367.4,-158.296875,-5,1,40,0,40,0,1,39,,,,,,,,,
,,,,,,,,,,,,,,,,,,,,5eac7cc25fe9ad2d823fab6a,21,Male,2020-07-27_16h59.54.926,AvatarAutomaticProl,3.2.2,MacIntel,60,5eac7cc25fe9ad2d823fab6a,5f1b026ff9f4e82811599350,5f1eebd4f54a91054450861f,,,,,,,,,,,,,6668,1,0,1,0,1,0,,,,,,,300,200,0,const,3.5,70,right,6.76171875,-95,[],[],300.6,160.7617188,-15.5,1,40,0,40,0,1,39,,,,,,,,,
,,,,,,,,,,,,,,,,,,,,5eac7cc25fe9ad2d823fab6a,21,Male,2020-07-27_16h59.54.926,AvatarAutomaticProl,3.2.2,MacIntel,60,5eac7cc25fe9ad2d823fab6a,5f1b026ff9f4e82811599350,5f1eebd4f54a91054450861f,,,,,,,,,,,,,9117,1,0,1,0,1,0,,,,,,,500,400,0,const,3.5,124,left,112.9570313,72,[],[],267.2,-121.5429688,12.5,0,40,0,40,0,1,39,,,,,,,,,
,,,,,,,,,,,,,,,,,,,,5eac7cc25fe9ad2d823fab6a,21,Male,2020-07-27_16h59.54.926,AvatarAutomaticProl,3.2.2,MacIntel,60,5eac7cc25fe9ad2d823fab6a,5f1b026ff9f4e82811599350,5f1eebd4f54a91054450861f,,,,,,,,,,,,,7809,1,0,1,0,1,0,,,,,,,300,200,0,const,3.5,121,right,-5.30078125,-71,[],[],384.1,159.1992188,16,1,40,0,40,0,1,39,,,,,,,,,
,,,,,,,,,,,,,,,,,,,,5eac7cc25fe9ad2d823fab6a,21,Male,2020-07-27_16h59.54.926,AvatarAutomaticProl,3.2.2,MacIntel,60,5eac7cc25fe9ad2d823fab6a,5f1b026ff9f4e82811599350,5f1eebd4f54a91054450861f,,,,,,,,,,,,,6956,1,0,1,0,1,0,,,,,,,400,300,0,const,3.5,87,right,-14.359375,113,[],[],283.9,216.640625,-8.5,0,40,0,40,0,1,39,,,,,,,,,
,,,,,,,,,,,,,,,,,,,,5eac7cc25fe9ad2d823fab6a,21,Male,2020-07-27_16h59.54.926,AvatarAutomaticProl,3.2.2,MacIntel,60,5eac7cc25fe9ad2d823fab6a,5f1b026ff9f4e82811599350,5f1eebd4f54a91054450861f,,,,,,,,,,,,,9180,1,0,1,0,1,0,,,,,,,200,100,0,const,3.5,100,left,1.3046875,-46,[],[],450.9,-58.1953125,5.5,1,40,0,40,0,1,39,,,,,,,,,
,,,,,,,,,,,,,,,,,,,,5eac7cc25fe9ad2d823fab6a,21,Male,2020-07-27_16h59.54.926,AvatarAutomaticProl,3.2.2,MacIntel,60,5eac7cc25fe9ad2d823fab6a,5f1b026ff9f4e82811599350,5f1eebd4f54a91054450861f,,,,,,,,,,,,,8869,1,0,1,0,1,0,,,,,,,500,400,0,const,3.5,128,left,-235.1328125,-142,[],[],367.4,-238.6328125,5.5,0,40,0,40,0,1,39,,,,,,,,,
,,,,,,,,,,,,,,,,,,,,5eac7cc25fe9ad2d823fab6a,21,Male,2020-07-27_16h59.54.926,AvatarAutomaticProl,3.2.2,MacIntel,60,5eac7cc25fe9ad2d823fab6a,5f1b026ff9f4e82811599350,5f1eebd4f54a91054450861f,,,,,,,,,,,,,8072,1,0,1,0,1,0,,,,,,,300,200,0,const,3.5,70,right,-2.5703125,-76,[],[],317.3,158.4296875,-5,1,40,0,40,0,1,39,,,,,,,,,
,,,,,,,,,,,,,,,,,,,,5eac7cc25fe9ad2d823fab6a,21,Male,2020-07-27_16h59.54.926,AvatarAutomaticProl,3.2.2,MacIntel,60,5eac7cc25fe9ad2d823fab6a,5f1b026ff9f4e82811599350,5f1eebd4f54a91054450861f,,,,,,,,,,,,,7011,1,0,1,0,1,0,,,,,,,500,400,0,const,3.5,113,left,-374.6210938,-126,[],[],233.8,-374.6210938,37,1,40,0,40,0,1,39,,,,,,,,,
,,,,,,,,,,,,,,,,,,,,5eac7cc25fe9ad2d823fab6a,21,Male,2020-07-27_16h59.54.926,AvatarAutomaticProl,3.2.2,MacIntel,60,5eac7cc25fe9ad2d823fab6a,5f1b026ff9f4e82811599350,5f1eebd4f54a91054450861f,,,,,,,,,,,,,7683,1,0,1,0,1,0,,,,,,,500,400,0,const,3.5,93,right,265.6601563,188,[],[],467.6,356.6601563,-12,1,40,0,40,0,1,39,,,,,,,,,
,,,,,,,,,,,,,,,,,,,,5eac7cc25fe9ad2d823fab6a,21,Male,2020-07-27_16h59.54.926,AvatarAutomaticProl,3.2.2,MacIntel,60,5eac7cc25fe9ad2d823fab6a,5f1b026ff9f4e82811599350,5f1eebd4f54a91054450861f,,,,,,,,,,,,,8600,1,0,1,0,1,0,,,,,,,400,300,0,const,3.5,70,right,205.0039063,112,[],[],334,261.0039063,-19,1,40,0,40,0,1,39,,,,,,,,,
,,,,,,,,,,,,,,,,,,,,5eac7cc25fe9ad2d823fab6a,21,Male,2020-07-27_16h59.54.926,AvatarAutomaticProl,3.2.2,MacIntel,60,5eac7cc25fe9ad2d823fab6a,5f1b026ff9f4e82811599350,5f1eebd4f54a91054450861f,,,,,,,,,,,,,8091,1,0,1,0,1,0,,,,,,,200,100,0,const,3.5,75,right,-7.25390625,49,[],[],384.1,59.24609375,-12,1,40,0,40,0,1,39,,,,,,,,,
,,,,,,,,,,,,,,,,,,,,5eac7cc25fe9ad2d823fab6a,21,Male,2020-07-27_16h59.54.926,AvatarAutomaticProl,3.2.2,MacIntel,60,5eac7cc25fe9ad2d823fab6a,5f1b026ff9f4e82811599350,5f1eebd4f54a91054450861f,,,,,,,,,,,,,15676,1,0,1,0,1,0,,,,,,,400,300,0,const,3.5,147,left,-183.8710938,11,[],[],250.5,-257.3710938,9,1,40,0,40,0,1,39,,,,,,,,,
,,,,,,,,,,,,,,,,,,,,5eac7cc25fe9ad2d823fab6a,21,Male,2020-07-27_16h59.54.926,AvatarAutomaticProl,3.2.2,MacIntel,60,5eac7cc25fe9ad2d823fab6a,5f1b026ff9f4e82811599350,5f1eebd4f54a91054450861f,,,,,,,,,,,,,36376,1,0,1,0,1,0,,,,,,,400,300,0,const,3.5,141,left,295.8515625,99,[],[],317.3,78.8515625,12.5,0,40,0,40,0,1,39,,,,,,,,,
,,,,,,,,,,,,,,,,,,,,5eac7cc25fe9ad2d823fab6a,21,Male,2020-07-27_16h59.54.926,AvatarAutomaticProl,3.2.2,MacIntel,60,5eac7cc25fe9ad2d823fab6a,5f1b026ff9f4e82811599350,5f1eebd4f54a91054450861f,,,,,,,,,,,,,10917,1,0,1,0,1,0,,,,,,,300,200,0,const,3.5,103,left,-12.77734375,40,[],[],450.9,-159.7773438,12.5,1,40,0,40,0,1,39,,,,,,,,,
,,,,,,,,,,,,,,,,,,,,5eac7cc25fe9ad2d823fab6a,21,Male,2020-07-27_16h59.54.926,AvatarAutomaticProl,3.2.2,MacIntel,60,5eac7cc25fe9ad2d823fab6a,5f1b026ff9f4e82811599350,5f1eebd4f54a91054450861f,,,,,,,,,,,,,9180,1,0,1,0,1,0,,,,,,,400,300,0,const,3.5,147,right,207.796875,45,[],[],300.6,256.796875,9,1,40,0,40,0,1,39,,,,,,,,,
,,,,,,,,,,,,,,,,,,,,5eac7cc25fe9ad2d823fab6a,21,Male,2020-07-27_16h59.54.926,AvatarAutomaticProl,3.2.2,MacIntel,60,5eac7cc25fe9ad2d823fab6a,5f1b026ff9f4e82811599350,5f1eebd4f54a91054450861f,,,,,,,,,,,,,7716,1,0,1,0,1,0,,,,,,,200,100,0,const,3.5,103,left,-1.53515625,-12,[],[],250.5,-57.53515625,-12,1,40,0,40,0,1,39,,,,,,,,,
,,,,,,,,,,,,,,,,,,,,5eac7cc25fe9ad2d823fab6a,21,Male,2020-07-27_16h59.54.926,AvatarAutomaticProl,3.2.2,MacIntel,60,5eac7cc25fe9ad2d823fab6a,5f1b026ff9f4e82811599350,5f1eebd4f54a91054450861f,,,,,,,,,,,,,9004,1,0,1,0,1,0,,,,,,,500,400,0,const,3.5,133,right,-315.3828125,-12,[],[],434.2,-84.3828125,16,0,40,0,40,0,1,39,,,,,,,,,
,,,,,,,,,,,,,,,,,,,,5eac7cc25fe9ad2d823fab6a,21,Male,2020-07-27_16h59.54.926,AvatarAutomaticProl,3.2.2,MacIntel,60,5eac7cc25fe9ad2d823fab6a,5f1b026ff9f4e82811599350,5f1eebd4f54a91054450861f,,,,,,,,,,,,,13028,1,0,1,0,1,0,,,,,,,400,300,0,const,3.5,113,left,-128.7734375,43,[],[],267.2,-258.2734375,9,1,40,0,40,0,1,39,,,,,,,,,
,,,,,,,,,,,,,,,,,,,,5eac7cc25fe9ad2d823fab6a,21,Male,2020-07-27_16h59.54.926,AvatarAutomaticProl,3.2.2,MacIntel,60,5eac7cc25fe9ad2d823fab6a,5f1b026ff9f4e82811599350,5f1eebd4f54a91054450861f,,,,,,,,,,,,,7444,1,0,1,0,1,0,,,,,,,400,300,0,const,3.5,117,left,212.6835938,99,[],[],283.9,-39.31640625,-1.5,0,40,0,40,0,1,39,,,,,,,,,
,,,,,,,,,,,,,,,,,,,,5eac7cc25fe9ad2d823fab6a,21,Male,2020-07-27_16h59.54.926,AvatarAutomaticProl,3.2.2,MacIntel,60,5eac7cc25fe9ad2d823fab6a,5f1b026ff9f4e82811599350,5f1eebd4f54a91054450861f,,,,,,,,,,,,,7684,1,0,1,0,1,0,,,,,,,300,200,0,const,3.5,112,right,-17.91015625,90,[],[],400.8,157.0898438,12.5,1,40,0,40,0,1,39,,,,,,,,,
,,,,,,,,,,,,,,,,,,,,5eac7cc25fe9ad2d823fab6a,21,Male,2020-07-27_16h59.54.926,AvatarAutomaticProl,3.2.2,MacIntel,60,5eac7cc25fe9ad2d823fab6a,5f1b026ff9f4e82811599350,5f1eebd4f54a91054450861f,,,,,,,,,,,,,8626,1,0,1,0,1,0,,,,,,,200,100,0,const,3.5,143,left,2.34765625,14,[],[],317.3,-57.15234375,-8.5,1,40,0,40,0,1,39,,,,,,,,,
,,,,,,,,,,,,,,,,,,,,5eac7cc25fe9ad2d823fab6a,21,Male,2020-07-27_16h59.54.926,AvatarAutomaticProl,3.2.2,MacIntel,60,5eac7cc25fe9ad2d823fab6a,5f1b026ff9f4e82811599350,5f1eebd4f54a91054450861f,,,,,,,,,,,,,22112,1,0,1,0,1,0,,,,,,,300,200,0,const,3.5,65,left,-6.35546875,96,[],[],300.6,-163.8554688,23,1,40,0,40,0,1,39,,,,,,,,,
,,,,,,,,,,,,,,,,,,,,5eac7cc25fe9ad2d823fab6a,21,Male,2020-07-27_16h59.54.926,AvatarAutomaticProl,3.2.2,MacIntel,60,5eac7cc25fe9ad2d823fab6a,5f1b026ff9f4e82811599350,5f1eebd4f54a91054450861f,,,,,,,,,,,,,18253,1,0,1,0,1,0,,,,,,,300,200,0,const,3.5,123,left,-21.7578125,60,[],[],467.6,-130.2578125,-1.5,0,40,0,40,0,1,39,,,,,,,,,
,,,,,,,,,,,,,,,,,,,,5eac7cc25fe9ad2d823fab6a,21,Male,2020-07-27_16h59.54.926,AvatarAutomaticProl,3.2.2,MacIntel,60,5eac7cc25fe9ad2d823fab6a,5f1b026ff9f4e82811599350,5f1eebd4f54a91054450861f,,,,,,,,,,,,,11969,1,0,1,0,1,0,,,,,,,200,100,0,const,3.5,115,right,-12.98828125,46,[],[],434.2,57.01171875,5.5,1,40,0,40,0,1,39,,,,,,,,,
,,,,,,,,,,,,,,,,,,,,5eac7cc25fe9ad2d823fab6a,21,Male,2020-07-27_16h59.54.926,AvatarAutomaticProl,3.2.2,MacIntel,60,5eac7cc25fe9ad2d823fab6a,5f1b026ff9f4e82811599350,5f1eebd4f54a91054450861f,,,,,,,,,,,,,11990,1,0,1,0,1,0,,,,,,,300,200,0,const,3.5,83,right,-6.60546875,2,[],[],400.8,164.8945313,26.5,1,40,0,40,0,1,39,,,,,,,,,
,,,,,,,,,,,,,,,,,,,,5eac7cc25fe9ad2d823fab6a,21,Male,2020-07-27_16h59.54.926,AvatarAutomaticProl,3.2.2,MacIntel,60,5eac7cc25fe9ad2d823fab6a,5f1b026ff9f4e82811599350,5f1eebd4f54a91054450861f,,,,,,,,,,,,,6813,1,0,1,0,1,0,,,,,,,200,100,0,const,3.5,71,left,0.77734375,-29,[],[],384.1,-62.22265625,-22.5,1,40,0,40,0,1,39,,,,,,,,,
,,,,,,,,,,,,,,,,,,,,5eac7cc25fe9ad2d823fab6a,21,Male,2020-07-27_16h59.54.926,AvatarAutomaticProl,3.2.2,MacIntel,60,5eac7cc25fe9ad2d823fab6a,5f1b026ff9f4e82811599350,5f1eebd4f54a91054450861f,,,,,,,,,,,,,7506,1,0,1,0,1,0,,,,,,,200,100,0,const,3.5,87,left,1.48828125,31,[],[],367.4,-72.01171875,33.5,1,40,0,40,0,1,39,,,,,,,,,
,,,,,,,,,,,,,,,,,,,,5eac7cc25fe9ad2d823fab6a,21,Male,2020-07-27_16h59.54.926,AvatarAutomaticProl,3.2.2,MacIntel,60,5eac7cc25fe9ad2d823fab6a,5f1b026ff9f4e82811599350,5f1eebd4f54a91054450861f,,,,,,,,,,,,,8705,1,0,1,0,1,0,,,,,,,400,300,0,const,3.5,98,left,-115.7773438,-24,[],[],334,-255.7773438,5.5,1,40,0,40,0,1,39,,,,,,,,,
,,,,,,,,,,,,,,,,,,,,5eac7cc25fe9ad2d823fab6a,21,Male,2020-07-27_16h59.54.926,AvatarAutomaticProl,3.2.2,MacIntel,60,5eac7cc25fe9ad2d823fab6a,5f1b026ff9f4e82811599350,5f1eebd4f54a91054450861f,,,,,,,,,,,,,7941,1,0,1,0,1,0,,,,,,,500,400,0,const,3.5,130,left,286.7460938,-13,[],[],300.6,59.24609375,-15.5,0,40,0,40,0,1,39,,,,,,,,,
,,,,,,,,,,,,,,,,,,,,5eac7cc25fe9ad2d823fab6a,21,Male,2020-07-27_16h59.54.926,AvatarAutomaticProl,3.2.2,MacIntel,60,5eac7cc25fe9ad2d823fab6a,5f1b026ff9f4e82811599350,5f1eebd4f54a91054450861f,,,,,,,,,,,,,16328,1,0,1,0,1,0,,,,,,,200,100,0,const,3.5,78,right,-3.7109375,14,[],[],551.1,59.2890625,-8.5,1,40,0,40,0,1,39,,,,,,,,,
,,,,,,,,,,,,,,,,,,,,5eac7cc25fe9ad2d823fab6a,21,Male,2020-07-27_16h59.54.926,AvatarAutomaticProl,3.2.2,MacIntel,60,5eac7cc25fe9ad2d823fab6a,5f1b026ff9f4e82811599350,5f1eebd4f54a91054450861f,,,,,,,,,,,,,8039,1,0,1,0,1,0,,,,,,,500,400,0,const,3.5,65,left,-249.71875,18,[],[],584.5,-358.21875,5.5,1,40,0,40,0,1,39,,,,,,,,,
,,,,,,,,,,,,,,,,,,,,5eac7cc25fe9ad2d823fab6a,21,Male,2020-07-27_16h59.54.926,AvatarAutomaticProl,3.2.2,MacIntel,60,5eac7cc25fe9ad2d823fab6a,5f1b026ff9f4e82811599350,5f1eebd4f54a91054450861f,,,,,,,,,,,,,19998,1,0,1,0,1,0,,,,,,,500,400,0,const,3.5,70,right,257.2734375,81,[],[],300.6,355.2734375,-1.5,1,40,0,40,0,1,39,,,,,,,,,
,,,,,,,,,,,,,,,,,,,,5eac7cc25fe9ad2d823fab6a,21,Male,2020-07-27_16h59.54.926,AvatarAutomaticProl,3.2.2,MacIntel,60,5eac7cc25fe9ad2d823fab6a,5f1b026ff9f4e82811599350,5f1eebd4f54a91054450861f,,,,,,,,,,,,,6945,1,0,1,0,1,0,,,,,,,400,300,0,const,3.5,87,right,-164.6132813,-105,[],[],283.9,-73.61328125,5.5,0,40,0,40,0,1,39,,,,,,,,,
,,,,,,,,,,,,,,,,,,,,5eac7cc25fe9ad2d823fab6a,21,Male,2020-07-27_16h59.54.926,AvatarAutomaticProl,3.2.2,MacIntel,60,5eac7cc25fe9ad2d823fab6a,5f1b026ff9f4e82811599350,5f1eebd4f54a91054450861f,,,,,,,,,,,,,7501,1,0,1,0,1,0,,,,,,,300,200,0,const,3.5,139,right,-48.96875,-93,[],[],400.8,161.03125,16,1,40,0,40,0,1,39,,,,,,,,,
,,,,,,,,,,,,,,,,,,,,5eac7cc25fe9ad2d823fab6a,21,Male,2020-07-27_16h59.54.926,AvatarAutomaticProl,3.2.2,MacIntel,60,5eac7cc25fe9ad2d823fab6a,5f1b026ff9f4e82811599350,5f1eebd4f54a91054450861f,,,,,,,,,,,,,8950,1,0,1,0,1,0,,,,,,,,,,,,,,,,,,,,,,,,,,,,500,0,8,0,8,0,1,7,
,,,,,,,,,,,,,,,,,,,,5eac7cc25fe9ad2d823fab6a,21,Male,2020-07-27_16h59.54.926,AvatarAutomaticProl,3.2.2,MacIntel,60,5eac7cc25fe9ad2d823fab6a,5f1b026ff9f4e82811599350,5f1eebd4f54a91054450861f,,,,,,,,,,,,,22711,1,0,1,0,1,0,,,,,,,,,,,,,,,,,,,,,,,,,,,,400,0.316588542,8,0,8,0,1,7,
,,,,,,,,,,,,,,,,,,,,5eac7cc25fe9ad2d823fab6a,21,Male,2020-07-27_16h59.54.926,AvatarAutomaticProl,3.2.2,MacIntel,60,5eac7cc25fe9ad2d823fab6a,5f1b026ff9f4e82811599350,5f1eebd4f54a91054450861f,,,,,,,,,,,,,2558,1,0,1,0,1,0,,,,,,,,,,,,,,,,,,,,,,,,,,,,200,-0.97578125,8,0,8,0,1,7,
,,,,,,,,,,,,,,,,,,,,5eac7cc25fe9ad2d823fab6a,21,Male,2020-07-27_16h59.54.926,AvatarAutomaticProl,3.2.2,MacIntel,60,5eac7cc25fe9ad2d823fab6a,5f1b026ff9f4e82811599350,5f1eebd4f54a91054450861f,,,,,,,,,,,,,2403,1,0,1,0,1,0,,,,,,,,,,,,,,,,,,,,,,,,,,,,400,0.854296875,8,0,8,0,1,7,
,,,,,,,,,,,,,,,,,,,,5eac7cc25fe9ad2d823fab6a,21,Male,2020-07-27_16h59.54.926,AvatarAutomaticProl,3.2.2,MacIntel,60,5eac7cc25fe9ad2d823fab6a,5f1b026ff9f4e82811599350,5f1eebd4f54a91054450861f,,,,,,,,,,,,,1684,1,0,1,0,1,0,,,,,,,,,,,,,,,,,,,,,,,,,,,,300,0,8,0,8,0,1,7,
,,,,,,,,,,,,,,,,,,,,5eac7cc25fe9ad2d823fab6a,21,Male,2020-07-27_16h59.54.926,AvatarAutomaticProl,3.2.2,MacIntel,60,5eac7cc25fe9ad2d823fab6a,5f1b026ff9f4e82811599350,5f1eebd4f54a91054450861f,,,,,,,,,,,,,2136,1,0,1,0,1,0,,,,,,,,,,,,,,,,,,,,,,,,,,,,500,0.340182292,8,0,8,0,1,7,
,,,,,,,,,,,,,,,,,,,,5eac7cc25fe9ad2d823fab6a,21,Male,2020-07-27_16h59.54.926,AvatarAutomaticProl,3.2.2,MacIntel,60,5eac7cc25fe9ad2d823fab6a,5f1b026ff9f4e82811599350,5f1eebd4f54a91054450861f,,,,,,,,,,,,,2173,1,0,1,0,1,0,,,,,,,,,,,,,,,,,,,,,,,,,,,,200,-0.996067708,8,0,8,0,1,7,
,,,,,,,,,,,,,,,,,,,,5eac7cc25fe9ad2d823fab6a,21,Male,2020-07-27_16h59.54.926,AvatarAutomaticProl,3.2.2,MacIntel,60,5eac7cc25fe9ad2d823fab6a,5f1b026ff9f4e82811599350,5f1eebd4f54a91054450861f,,,,,,,,,,,,,2853,1,0,1,0,1,0,,,,,,,,,,,,,,,,,,,,,,,,,,,,300,-0.530026042,8,0,8,0,1,7,
,,,,,,,,,,,,,,,,,,,,5eac7cc25fe9ad2d823fab6a,21,Male,2020-07-27_16h59.54.926,AvatarAutomaticProl,3.2.2,MacIntel,60,5eac7cc25fe9ad2d823fab6a,5f1b026ff9f4e82811599350,5f1eebd4f54a91054450861f,,,,,,,,,,,,,,,,,,,,,,,,,,,,,,,,,,,,,,,,,,,,,,,,,,,,,,,1488512
