Browser,true_x_res,true_y_res,x_adjustment,y_adjustment,Params_TravelTime,Params_yOffset,Params_Reach,Params_ScreenWidth,Params_ScreenHeight,Params_Hz,Params_HzScale,Params_conf_linewidth,ExperimentStarted,params_consent,ConsentLoop.thisRepN,ConsentLoop.thisTrialN,ConsentLoop.thisN,ConsentLoop.thisIndex,ConsentLoop.ran,ConsentLoop.order,participant,Age,Gender,date,expName,psychopyVersion,OS,frameRate,PROLIFIC_PID,STUDY_ID,SESSION_ID,Demo_speedCond,Demo_delta,Demo_xposTarget,Demo_yposTarget,Demo_Delay,Demo_AvSpeed,Demo_Success,Demo_motion,Demo_Click,Demo_RTms,Demo_finalX,Demo_finalY,Trial_duration,BlockLoop.thisRepN,BlockLoop.thisTrialN,BlockLoop.thisN,BlockLoop.thisIndex,BlockLoop.ran,BlockLoop.order,DemoLoop.thisRepN,DemoLoop.thisTrialN,DemoLoop.thisN,DemoLoop.thisIndex,DemoLoop.ran,DemoLoop.order,Decision_Delta,Decision_xposTarget,Decision_yposTarget,Decision_SpeedCond,Decision_AvSpeed,Decision_delay,Decision_targetSide,Decision_placement,Decision_initplace,Decision_Driving,Decision_Click,Decision_RTms,Decision_finalX,Decision_finalY,Decision_success,DecisionTrialLoop.thisRepN,DecisionTrialLoop.thisTrialN,DecisionTrialLoop.thisN,DecisionTrialLoop.thisIndex,DecisionTrialLoop.ran,DecisionTrialLoop.order,Confidence_Delta,Confidence_resp,ConfidenceLoop.thisRepN,ConfidenceLoop.thisTrialN,ConfidenceLoop.thisN,ConfidenceLoop.thisIndex,ConfidenceLoop.ran,ConfidenceLoop.order,exp_duration
Chrome,1920,969,1,1,120,100,45,1200,600,60,1,300,7/28/20,Agreed,3,0,3,0,1,2,5ec3241b63dd40000cba7af3,23,Female,2020-07-28_13h21.32.467,ProlificManual,3.2.2,Win32,60,5ec3241b63dd40000cba7af3,5f1f20d4c389060d55cb9bc4,5f20183615a22828cb609c01,,,,,,,,,,,,,,,,,,,,,,,,,,,,,,,,,,,,,,,,,,,,,,,,,,,,,,,
,,,,,,,,,,,,,,Agreed,3,0,3,0,1,2,5ec3241b63dd40000cba7af3,23,Female,2020-07-28_13h21.32.467,ProlificManual,3.2.2,Win32,60,5ec3241b63dd40000cba7af3,5f1f20d4c389060d55cb9bc4,5f20183615a22828cb609c01,,,,,,,,,,,,,,,,,,,,,,,,,,,,,,,,,,,,,,,,,,,,,,,,,,,,,,,
,,,,,,,,,,,,,,Agreed,3,0,3,0,1,2,5ec3241b63dd40000cba7af3,23,Female,2020-07-28_13h21.32.467,ProlificManual,3.2.2,Win32,60,5ec3241b63dd40000cba7af3,5f1f20d4c389060d55cb9bc4,5f20183615a22828cb609c01,,,,,,,,,,,,,,,,,,,,,,,,,,,,,,,,,,,,,,,,,,,,,,,,,,,,,,,
,,,,,,,,,,,,,,,,,,,,,5ec3241b63dd40000cba7af3,23,Female,2020-07-28_13h21.32.467,ProlificManual,3.2.2,Win32,60,5ec3241b63dd40000cba7af3,5f1f20d4c389060d55cb9bc4,5f20183615a22828cb609c01,const,400,-300,0,98,3.5,0,"[""stopped"",""stopped"",""stopped"",""stopped"",""stopped"",""stopped"",""stopped"",""stopped"",""stopped"",""stopped"",""stopped"",""stopped"",""stopped"",""stopped"",""stopped"",""stopped"",""stopped"",""stopped"",""stopped"",""stopped"",""stopped"",""stopped"",""stopped"",""stopped"",""stopped"",""stopped"",""stopped"",""stopped"",""stopped"",""stopped"",""stopped"",""stopped"",""stopped"",""stopped"",""stopped"",""stopped"",""stopped"",""stopped"",""stopped"",""stopped"",""stopped"",""stopped"",""stopped"",""stopped"",""stopped"",""stopped"",""stopped"",""stopped"",""stopped"",""stopped"",""stopped"",""stopped"",""stopped"",""stopped"",""stopped"",""stopped"",""stopped"",""stopped"",""stopped"",""stopped"",""stopped"",""down"",""down"",""down"",""down"",""down"",""down"",""down"",""down"",""down"",""down"",""down"",""down"",""down"",""down"",""down"",""down"",""down"",""down"",""down"",""down"",""down"",""down"",""down"",""down"",""down"",""down"",""down"",""down"",""down"",""down"",""down"",""down"",""down"",""stopped"",""stopped"",""stopped"",""stopped"",""stopped"",""stopped"",""stopped"",""stopped"",""stopped"",""stopped"",""stopped"",""stopped"",""stopped"",""stopped"",""stopped"",""stopped"",""stopped"",""stopped"",""stopped"",""stopped"",""stopped"",""stopped"",""left"",""left"",""left"",""left"",""left""]","[0,0,0,0,0,0,0,0,0,0,0,0,0,0,0,0,0,0,0,0,0,0,0,0,0,0,0,0,0,0,0,0,0,0,0,0,0,0,0,0,0,0,0,0,0,0,0,0,0,0,0,0,0,0,0,0,0,0,0,0,0,1,1,1,1,1,1,1,1,1,1,1,1,1,1,1,1,1,1,1,1,1,1,1,1,1,1,1,1,1,1,1,1,1,0,0,0,0,0,0,0,0,0,0,0,0,0,0,0,0,0,0,0,0,0,0,1,1,1,1,1]",369,-17.5,-15.5,3426,1,0,1,0,1,0,48,0,48,0,1,47,,,,,,,,,,,,,,,,,,,,,,,,,,,,,,
,,,,,,,,,,,,,,,,,,,,,5ec3241b63dd40000cba7af3,23,Female,2020-07-28_13h21.32.467,ProlificManual,3.2.2,Win32,60,5ec3241b63dd40000cba7af3,5f1f20d4c389060d55cb9bc4,5f20183615a22828cb609c01,,400,300,0,68,3.5,0,"[""stopped"",""stopped"",""stopped"",""stopped"",""stopped"",""stopped"",""stopped"",""stopped"",""stopped"",""stopped"",""stopped"",""stopped"",""stopped"",""stopped"",""stopped"",""stopped"",""stopped"",""stopped"",""stopped"",""stopped"",""stopped"",""stopped"",""stopped"",""stopped"",""stopped"",""stopped"",""stopped"",""stopped"",""stopped"",""stopped"",""stopped"",""stopped"",""stopped"",""stopped"",""stopped"",""stopped"",""stopped"",""stopped"",""stopped"",""stopped"",""stopped"",""stopped"",""stopped"",""stopped"",""stopped"",""stopped"",""stopped"",""stopped"",""stopped"",""stopped"",""stopped"",""stopped"",""stopped"",""stopped"",""stopped"",""stopped"",""stopped"",""stopped"",""stopped"",""stopped"",""stopped"",""stopped"",""stopped"",""stopped"",""stopped"",""stopped"",""stopped"",""stopped"",""stopped"",""stopped"",""stopped"",""stopped"",""stopped"",""stopped"",""stopped"",""stopped"",""stopped"",""stopped"",""stopped"",""stopped"",""right"",""right"",""right"",""right"",""right"",""right"",""right"",""right"",""right"",""right"",""right"",""right"",""right"",""right"",""right"",""right"",""right"",""right"",""right"",""right"",""right"",""right"",""right"",""right"",""right"",""right"",""right"",""right"",""right"",""right"",""right"",""right"",""right"",""right"",""right"",""right"",""right"",""right"",""right"",""right"",""right""]","[0,0,0,0,0,0,0,0,0,0,0,0,0,0,0,0,0,0,0,0,0,0,0,0,0,0,0,0,0,0,0,0,0,0,0,0,0,0,0,0,0,0,0,0,0,0,0,0,0,0,0,0,0,0,0,0,0,0,0,0,0,0,0,0,0,0,0,0,0,0,0,0,0,0,0,0,0,0,0,0,1,1,1,1,1,1,1,1,1,1,1,1,1,1,1,1,1,1,1,1,1,1,1,1,1,1,1,1,1,1,1,1,1,1,1,1,1,1,1,1,1]",498,143.5,100,3389,1,0,1,0,1,0,48,0,48,0,1,47,,,,,,,,,,,,,,,,,,,,,,,,,,,,,,
,,,,,,,,,,,,,,,,,,,,,5ec3241b63dd40000cba7af3,23,Female,2020-07-28_13h21.32.467,ProlificManual,3.2.2,Win32,60,5ec3241b63dd40000cba7af3,5f1f20d4c389060d55cb9bc4,5f20183615a22828cb609c01,,300,200,0,73,3.5,0,"[""stopped"",""stopped"",""stopped"",""stopped"",""stopped"",""stopped"",""stopped"",""stopped"",""stopped"",""stopped"",""stopped"",""stopped"",""stopped"",""stopped"",""stopped"",""stopped"",""stopped"",""stopped"",""stopped"",""stopped"",""stopped"",""stopped"",""stopped"",""stopped"",""stopped"",""stopped"",""stopped"",""stopped"",""stopped"",""stopped"",""stopped"",""right"",""right"",""right"",""right"",""right"",""right"",""right"",""right"",""right"",""right"",""right"",""right"",""right"",""right"",""right"",""right"",""right"",""right"",""right"",""right"",""right"",""right"",""right"",""right"",""right"",""right"",""right"",""right"",""right"",""right"",""right"",""right"",""right"",""right"",""right"",""right"",""right"",""right"",""right"",""right"",""right"",""right"",""right"",""right"",""right"",""right"",""right"",""right"",""right"",""right"",""right"",""right"",""right"",""right"",""right"",""right"",""stopped"",""stopped"",""stopped"",""stopped"",""stopped"",""stopped"",""stopped"",""stopped"",""stopped"",""stopped"",""stopped"",""stopped"",""stopped"",""stopped"",""stopped"",""stopped"",""stopped"",""stopped"",""stopped"",""stopped"",""stopped"",""stopped"",""stopped"",""stopped"",""stopped"",""stopped"",""stopped"",""stopped"",""stopped"",""stopped"",""stopped"",""stopped"",""stopped"",""stopped""]","[0,0,0,0,0,0,0,0,0,0,0,0,0,0,0,0,0,0,0,0,0,0,0,0,0,0,0,0,0,0,0,1,1,1,1,1,1,1,1,1,1,1,1,1,1,1,1,1,1,1,1,1,1,1,1,1,1,1,1,1,1,1,1,1,1,1,1,1,1,1,1,1,1,1,1,1,1,1,1,1,1,1,1,1,1,1,1,0,0,0,0,0,0,0,0,0,0,0,0,0,0,0,0,0,0,0,0,0,0,0,0,0,0,0,0,0,0,0,0,0,0]",200,196,100,5912,1,0,1,0,1,0,48,0,48,0,1,47,,,,,,,,,,,,,,,,,,,,,,,,,,,,,,
,,,,,,,,,,,,,,,,,,,,,5ec3241b63dd40000cba7af3,23,Female,2020-07-28_13h21.32.467,ProlificManual,3.2.2,Win32,60,5ec3241b63dd40000cba7af3,5f1f20d4c389060d55cb9bc4,5f20183615a22828cb609c01,,300,200,0,70,3.5,0,"[""stopped"",""stopped"",""stopped"",""stopped"",""stopped"",""stopped"",""stopped"",""stopped"",""stopped"",""stopped"",""stopped"",""stopped"",""stopped"",""stopped"",""stopped"",""stopped"",""stopped"",""stopped"",""stopped"",""stopped"",""stopped"",""stopped"",""stopped"",""stopped"",""stopped"",""stopped"",""stopped"",""stopped"",""stopped"",""stopped"",""stopped"",""stopped"",""stopped"",""stopped"",""right"",""right"",""right"",""right"",""right"",""right"",""right"",""right"",""right"",""right"",""right"",""right"",""right"",""right"",""right"",""right"",""right"",""right"",""right"",""right"",""right"",""right"",""right"",""right"",""right"",""right"",""right"",""right"",""right"",""right"",""right"",""right"",""right"",""right"",""right"",""right"",""right"",""right"",""right"",""right"",""right"",""right"",""right"",""right"",""right"",""right"",""right"",""right"",""right"",""right"",""right"",""right"",""right"",""right"",""right"",""right"",""right"",""right"",""right"",""right"",""right"",""right"",""right"",""right"",""right"",""stopped"",""stopped"",""stopped"",""stopped"",""stopped"",""stopped"",""stopped"",""stopped"",""stopped"",""stopped"",""stopped"",""stopped"",""stopped"",""stopped"",""stopped"",""stopped"",""stopped"",""stopped"",""stopped"",""stopped"",""stopped"",""stopped""]","[0,0,0,0,0,0,0,0,0,0,0,0,0,0,0,0,0,0,0,0,0,0,0,0,0,0,0,0,0,0,0,0,0,0,1,1,1,1,1,1,1,1,1,1,1,1,1,1,1,1,1,1,1,1,1,1,1,1,1,1,1,1,1,1,1,1,1,1,1,1,1,1,1,1,1,1,1,1,1,1,1,1,1,1,1,1,1,1,1,1,1,1,1,1,1,1,1,1,1,0,0,0,0,0,0,0,0,0,0,0,0,0,0,0,0,0,0,0,0,0,0]",234,227.5,100,3032,1,0,1,0,1,0,48,0,48,0,1,47,,,,,,,,,,,,,,,,,,,,,,,,,,,,,,
,,,,,,,,,,,,,,,,,,,,,5ec3241b63dd40000cba7af3,23,Female,2020-07-28_13h21.32.467,ProlificManual,3.2.2,Win32,60,5ec3241b63dd40000cba7af3,5f1f20d4c389060d55cb9bc4,5f20183615a22828cb609c01,,500,400,0,134,3.5,0,"[""stopped"",""stopped"",""stopped"",""stopped"",""stopped"",""stopped"",""stopped"",""stopped"",""stopped"",""stopped"",""stopped"",""stopped"",""stopped"",""stopped"",""stopped"",""stopped"",""stopped"",""stopped"",""stopped"",""stopped"",""stopped"",""stopped"",""stopped"",""stopped"",""stopped"",""stopped"",""stopped"",""stopped"",""stopped"",""stopped"",""stopped"",""down"",""down"",""down"",""down"",""down"",""down"",""down"",""down"",""down"",""down"",""down"",""down"",""down"",""down"",""down"",""down"",""down"",""down"",""down"",""down"",""down"",""down"",""down"",""down"",""down"",""down"",""down"",""down"",""down"",""down"",""down"",""down"",""down"",""down"",""down"",""stopped"",""stopped"",""stopped"",""stopped"",""stopped"",""stopped"",""stopped"",""stopped"",""stopped"",""stopped"",""stopped"",""stopped"",""stopped"",""stopped"",""stopped"",""stopped"",""stopped"",""stopped"",""stopped"",""stopped"",""stopped"",""stopped"",""stopped"",""stopped"",""stopped"",""stopped"",""stopped"",""stopped"",""stopped"",""stopped"",""stopped"",""stopped"",""stopped"",""stopped"",""stopped"",""stopped"",""stopped"",""stopped"",""stopped"",""stopped"",""stopped"",""stopped"",""stopped"",""stopped"",""stopped"",""stopped"",""stopped"",""stopped"",""stopped"",""stopped"",""stopped"",""stopped"",""stopped"",""stopped"",""stopped""]","[0,0,0,0,0,0,0,0,0,0,0,0,0,0,0,0,0,0,0,0,0,0,0,0,0,0,0,0,0,0,0,1,1,1,1,1,1,1,1,1,1,1,1,1,1,1,1,1,1,1,1,1,1,1,1,1,1,1,1,1,1,1,1,1,1,1,0,0,0,0,0,0,0,0,0,0,0,0,0,0,0,0,0,0,0,0,0,0,0,0,0,0,0,0,0,0,0,0,0,0,0,0,0,0,0,0,0,0,0,0,0,0,0,0,0,0,0,0,0,0,0]",188,0,-22.5,4473,1,0,1,0,1,0,48,0,48,0,1,47,,,,,,,,,,,,,,,,,,,,,,,,,,,,,,
,,,,,,,,,,,,,,,,,,,,,5ec3241b63dd40000cba7af3,23,Female,2020-07-28_13h21.32.467,ProlificManual,3.2.2,Win32,60,5ec3241b63dd40000cba7af3,5f1f20d4c389060d55cb9bc4,5f20183615a22828cb609c01,,400,300,0,150,3.5,0,"[""stopped"",""stopped"",""stopped"",""stopped"",""stopped"",""stopped"",""stopped"",""stopped"",""stopped"",""stopped"",""stopped"",""stopped"",""stopped"",""stopped"",""stopped"",""stopped"",""stopped"",""stopped"",""stopped"",""stopped"",""stopped"",""stopped"",""stopped"",""stopped"",""stopped"",""stopped"",""stopped"",""stopped"",""stopped"",""stopped"",""stopped"",""stopped"",""stopped"",""stopped"",""stopped"",""stopped"",""stopped"",""stopped"",""down"",""down"",""down"",""down"",""down"",""down"",""down"",""down"",""down"",""down"",""down"",""down"",""down"",""down"",""down"",""down"",""down"",""down"",""down"",""down"",""down"",""down"",""down"",""down"",""down"",""down"",""down"",""down"",""down"",""down"",""down"",""stopped"",""stopped"",""stopped"",""stopped"",""stopped"",""stopped"",""stopped"",""stopped"",""stopped"",""stopped"",""stopped"",""stopped"",""stopped"",""stopped"",""stopped"",""stopped"",""stopped"",""stopped"",""stopped"",""stopped"",""stopped"",""stopped"",""stopped"",""stopped"",""stopped"",""stopped"",""stopped"",""stopped"",""stopped"",""stopped"",""stopped"",""stopped"",""stopped"",""stopped"",""right"",""right"",""right"",""right"",""right"",""right"",""right"",""right"",""right"",""right"",""right"",""right"",""right"",""right"",""right"",""right"",""right"",""right""]","[0,0,0,0,0,0,0,0,0,0,0,0,0,0,0,0,0,0,0,0,0,0,0,0,0,0,0,0,0,0,0,0,0,0,0,0,0,0,1,1,1,1,1,1,1,1,1,1,1,1,1,1,1,1,1,1,1,1,1,1,1,1,1,1,1,1,1,1,1,0,0,0,0,0,0,0,0,0,0,0,0,0,0,0,0,0,0,0,0,0,0,0,0,0,0,0,0,0,0,0,0,0,0,1,1,1,1,1,1,1,1,1,1,1,1,1,1,1,1,1,1]",231,63,-8.5,5476,1,0,1,0,1,0,48,0,48,0,1,47,,,,,,,,,,,,,,,,,,,,,,,,,,,,,,
,,,,,,,,,,,,,,,,,,,,,5ec3241b63dd40000cba7af3,23,Female,2020-07-28_13h21.32.467,ProlificManual,3.2.2,Win32,60,5ec3241b63dd40000cba7af3,5f1f20d4c389060d55cb9bc4,5f20183615a22828cb609c01,,500,400,0,140,3.5,0,"[""stopped"",""stopped"",""stopped"",""stopped"",""stopped"",""stopped"",""stopped"",""stopped"",""stopped"",""stopped"",""stopped"",""stopped"",""stopped"",""stopped"",""stopped"",""stopped"",""stopped"",""stopped"",""stopped"",""stopped"",""stopped"",""stopped"",""stopped"",""stopped"",""stopped"",""stopped"",""stopped"",""stopped"",""stopped"",""stopped"",""stopped"",""stopped"",""stopped"",""right"",""right"",""right"",""right"",""right"",""right"",""right"",""right"",""right"",""right"",""right"",""right"",""right"",""right"",""right"",""right"",""right"",""right"",""right"",""right"",""right"",""right"",""right"",""right"",""right"",""right"",""right"",""right"",""right"",""right"",""right"",""right"",""right"",""right"",""right"",""right"",""right"",""right"",""right"",""right"",""right"",""right"",""right"",""right"",""right"",""right"",""right"",""right"",""right"",""right"",""right"",""right"",""right"",""right"",""right"",""right"",""right"",""right"",""right"",""right"",""right"",""right"",""right"",""right"",""right"",""right"",""right"",""right"",""right"",""right"",""right"",""right"",""right"",""right"",""right"",""right"",""right"",""right"",""right"",""right"",""right"",""right"",""right"",""right"",""right"",""right"",""right"",""right""]","[0,0,0,0,0,0,0,0,0,0,0,0,0,0,0,0,0,0,0,0,0,0,0,0,0,0,0,0,0,0,0,0,0,1,1,1,1,1,1,1,1,1,1,1,1,1,1,1,1,1,1,1,1,1,1,1,1,1,1,1,1,1,1,1,1,1,1,1,1,1,1,1,1,1,1,1,1,1,1,1,1,1,1,1,1,1,1,1,1,1,1,1,1,1,1,1,1,1,1,1,1,1,1,1,1,1,1,1,1,1,1,1,1,1,1,1,1,1,1,1,1]",225,308,100,4311,1,0,1,0,1,0,48,0,48,0,1,47,,,,,,,,,,,,,,,,,,,,,,,,,,,,,,
,,,,,,,,,,,,,,,,,,,,,5ec3241b63dd40000cba7af3,23,Female,2020-07-28_13h21.32.467,ProlificManual,3.2.2,Win32,60,5ec3241b63dd40000cba7af3,5f1f20d4c389060d55cb9bc4,5f20183615a22828cb609c01,,300,200,0,116,3.5,0,"[""stopped"",""stopped"",""stopped"",""stopped"",""stopped"",""stopped"",""stopped"",""stopped"",""stopped"",""stopped"",""stopped"",""stopped"",""stopped"",""stopped"",""stopped"",""stopped"",""stopped"",""stopped"",""stopped"",""stopped"",""stopped"",""stopped"",""stopped"",""stopped"",""stopped"",""stopped"",""stopped"",""stopped"",""stopped"",""stopped"",""stopped"",""stopped"",""stopped"",""stopped"",""stopped"",""stopped"",""stopped"",""down"",""down"",""down"",""down"",""down"",""down"",""down"",""down"",""down"",""down"",""down"",""down"",""down"",""down"",""down"",""down"",""down"",""down"",""down"",""down"",""down"",""down"",""down"",""down"",""down"",""down"",""down"",""down"",""down"",""down"",""down"",""stopped"",""stopped"",""stopped"",""stopped"",""stopped"",""stopped"",""stopped"",""stopped"",""stopped"",""stopped"",""stopped"",""stopped"",""stopped"",""stopped"",""stopped"",""stopped"",""stopped"",""stopped"",""stopped"",""stopped"",""stopped"",""stopped"",""stopped"",""stopped"",""stopped"",""stopped"",""stopped"",""stopped"",""stopped"",""right"",""right"",""right"",""right"",""right"",""right"",""right"",""right"",""right"",""right"",""right"",""right"",""right"",""right"",""right"",""right"",""right"",""right"",""right"",""right"",""right"",""right"",""right"",""right""]","[0,0,0,0,0,0,0,0,0,0,0,0,0,0,0,0,0,0,0,0,0,0,0,0,0,0,0,0,0,0,0,0,0,0,0,0,0,1,1,1,1,1,1,1,1,1,1,1,1,1,1,1,1,1,1,1,1,1,1,1,1,1,1,1,1,1,1,1,0,0,0,0,0,0,0,0,0,0,0,0,0,0,0,0,0,0,0,0,0,0,0,0,0,0,0,0,0,1,1,1,1,1,1,1,1,1,1,1,1,1,1,1,1,1,1,1,1,1,1,1,1]",232,84,-8.5,2751,1,0,1,0,1,0,48,0,48,0,1,47,,,,,,,,,,,,,,,,,,,,,,,,,,,,,,
,,,,,,,,,,,,,,,,,,,,,5ec3241b63dd40000cba7af3,23,Female,2020-07-28_13h21.32.467,ProlificManual,3.2.2,Win32,60,5ec3241b63dd40000cba7af3,5f1f20d4c389060d55cb9bc4,5f20183615a22828cb609c01,,400,-300,0,137,3.5,0,"[""stopped"",""stopped"",""stopped"",""stopped"",""stopped"",""stopped"",""stopped"",""stopped"",""stopped"",""stopped"",""stopped"",""stopped"",""stopped"",""stopped"",""stopped"",""stopped"",""stopped"",""stopped"",""stopped"",""stopped"",""stopped"",""stopped"",""stopped"",""stopped"",""stopped"",""stopped"",""stopped"",""stopped"",""stopped"",""stopped"",""stopped"",""stopped"",""stopped"",""stopped"",""stopped"",""stopped"",""stopped"",""stopped"",""stopped"",""stopped"",""stopped"",""down"",""down"",""down"",""down"",""down"",""down"",""down"",""down"",""down"",""down"",""down"",""down"",""down"",""down"",""down"",""down"",""down"",""down"",""down"",""down"",""down"",""stopped"",""stopped"",""stopped"",""stopped"",""stopped"",""stopped"",""stopped"",""stopped"",""stopped"",""stopped"",""stopped"",""stopped"",""stopped"",""stopped"",""stopped"",""stopped"",""stopped"",""stopped"",""stopped"",""left"",""left"",""left"",""left"",""left"",""left"",""left"",""left"",""left"",""left"",""left"",""left"",""left"",""left"",""left"",""left"",""left"",""left"",""left"",""left"",""left"",""left"",""left"",""left"",""left"",""left"",""left"",""left"",""left"",""left"",""left"",""left"",""left"",""left"",""left"",""left"",""left"",""left"",""left"",""left""]","[0,0,0,0,0,0,0,0,0,0,0,0,0,0,0,0,0,0,0,0,0,0,0,0,0,0,0,0,0,0,0,0,0,0,0,0,0,0,0,0,0,1,1,1,1,1,1,1,1,1,1,1,1,1,1,1,1,1,1,1,1,1,0,0,0,0,0,0,0,0,0,0,0,0,0,0,0,0,0,0,0,1,1,1,1,1,1,1,1,1,1,1,1,1,1,1,1,1,1,1,1,1,1,1,1,1,1,1,1,1,1,1,1,1,1,1,1,1,1,1,1]",249,-140,26.5,3673,1,0,1,0,1,0,48,0,48,0,1,47,,,,,,,,,,,,,,,,,,,,,,,,,,,,,,
,,,,,,,,,,,,,,,,,,,,,5ec3241b63dd40000cba7af3,23,Female,2020-07-28_13h21.32.467,ProlificManual,3.2.2,Win32,60,5ec3241b63dd40000cba7af3,5f1f20d4c389060d55cb9bc4,5f20183615a22828cb609c01,,400,300,0,88,3.5,0,"[""stopped"",""stopped"",""stopped"",""stopped"",""stopped"",""stopped"",""stopped"",""stopped"",""stopped"",""stopped"",""stopped"",""stopped"",""stopped"",""stopped"",""stopped"",""stopped"",""stopped"",""stopped"",""stopped"",""stopped"",""stopped"",""stopped"",""stopped"",""stopped"",""stopped"",""stopped"",""stopped"",""stopped"",""stopped"",""stopped"",""stopped"",""stopped"",""stopped"",""stopped"",""stopped"",""stopped"",""stopped"",""stopped"",""stopped"",""stopped"",""stopped"",""stopped"",""stopped"",""stopped"",""stopped"",""down"",""down"",""down"",""down"",""down"",""down"",""down"",""down"",""down"",""down"",""down"",""down"",""down"",""down"",""down"",""down"",""down"",""down"",""down"",""down"",""stopped"",""stopped"",""stopped"",""stopped"",""stopped"",""stopped"",""stopped"",""stopped"",""stopped"",""stopped"",""stopped"",""stopped"",""stopped"",""stopped"",""stopped"",""stopped"",""stopped"",""stopped"",""stopped"",""stopped"",""stopped"",""stopped"",""stopped"",""stopped"",""stopped"",""stopped"",""stopped"",""stopped"",""stopped"",""stopped"",""stopped"",""stopped"",""right"",""right"",""right"",""right"",""right"",""right"",""right"",""right"",""right"",""right"",""right"",""right"",""right"",""right"",""right"",""right"",""right"",""right"",""right"",""right"",""right"",""right"",""right"",""right""]","[0,0,0,0,0,0,0,0,0,0,0,0,0,0,0,0,0,0,0,0,0,0,0,0,0,0,0,0,0,0,0,0,0,0,0,0,0,0,0,0,0,0,0,0,0,1,1,1,1,1,1,1,1,1,1,1,1,1,1,1,1,1,1,1,1,0,0,0,0,0,0,0,0,0,0,0,0,0,0,0,0,0,0,0,0,0,0,0,0,0,0,0,0,0,0,0,0,1,1,1,1,1,1,1,1,1,1,1,1,1,1,1,1,1,1,1,1,1,1,1,1]",272,84,30,2692,1,0,1,0,1,0,48,0,48,0,1,47,,,,,,,,,,,,,,,,,,,,,,,,,,,,,,
,,,,,,,,,,,,,,,,,,,,,5ec3241b63dd40000cba7af3,23,Female,2020-07-28_13h21.32.467,ProlificManual,3.2.2,Win32,60,5ec3241b63dd40000cba7af3,5f1f20d4c389060d55cb9bc4,5f20183615a22828cb609c01,,300,200,0,140,3.5,0,"[""stopped"",""stopped"",""stopped"",""stopped"",""stopped"",""stopped"",""stopped"",""stopped"",""stopped"",""stopped"",""stopped"",""stopped"",""stopped"",""stopped"",""stopped"",""stopped"",""stopped"",""stopped"",""stopped"",""stopped"",""stopped"",""stopped"",""stopped"",""stopped"",""stopped"",""stopped"",""stopped"",""stopped"",""stopped"",""stopped"",""stopped"",""stopped"",""stopped"",""stopped"",""stopped"",""stopped"",""stopped"",""right"",""right"",""right"",""right"",""right"",""right"",""right"",""right"",""right"",""right"",""right"",""right"",""right"",""right"",""right"",""right"",""right"",""right"",""right"",""right"",""right"",""right"",""right"",""right"",""right"",""right"",""right"",""right"",""right"",""right"",""right"",""right"",""right"",""right"",""right"",""right"",""right"",""right"",""right"",""right"",""right"",""right"",""right"",""right"",""right"",""right"",""right"",""right"",""right"",""right"",""right"",""right"",""right"",""right"",""stopped"",""stopped"",""stopped"",""stopped"",""stopped"",""stopped"",""stopped"",""stopped"",""stopped"",""stopped"",""stopped"",""stopped"",""stopped"",""stopped"",""stopped"",""stopped"",""stopped"",""stopped"",""stopped"",""stopped"",""stopped"",""stopped"",""stopped"",""stopped"",""stopped"",""stopped"",""stopped"",""stopped"",""stopped"",""stopped""]","[0,0,0,0,0,0,0,0,0,0,0,0,0,0,0,0,0,0,0,0,0,0,0,0,0,0,0,0,0,0,0,0,0,0,0,0,0,1,1,1,1,1,1,1,1,1,1,1,1,1,1,1,1,1,1,1,1,1,1,1,1,1,1,1,1,1,1,1,1,1,1,1,1,1,1,1,1,1,1,1,1,1,1,1,1,1,1,1,1,1,1,0,0,0,0,0,0,0,0,0,0,0,0,0,0,0,0,0,0,0,0,0,0,0,0,0,0,0,0,0,0]",225,189,100,3044,1,0,1,0,1,0,48,0,48,0,1,47,,,,,,,,,,,,,,,,,,,,,,,,,,,,,,
,,,,,,,,,,,,,,,,,,,,,5ec3241b63dd40000cba7af3,23,Female,2020-07-28_13h21.32.467,ProlificManual,3.2.2,Win32,60,5ec3241b63dd40000cba7af3,5f1f20d4c389060d55cb9bc4,5f20183615a22828cb609c01,,300,200,0,71,3.5,0,"[""stopped"",""stopped"",""stopped"",""stopped"",""stopped"",""stopped"",""stopped"",""stopped"",""stopped"",""stopped"",""stopped"",""stopped"",""stopped"",""stopped"",""stopped"",""stopped"",""stopped"",""stopped"",""stopped"",""stopped"",""stopped"",""stopped"",""stopped"",""stopped"",""stopped"",""down"",""down"",""down"",""down"",""down"",""down"",""down"",""down"",""down"",""down"",""down"",""down"",""down"",""down"",""down"",""stopped"",""stopped"",""stopped"",""stopped"",""stopped"",""stopped"",""stopped"",""stopped"",""stopped"",""stopped"",""stopped"",""stopped"",""stopped"",""stopped"",""stopped"",""stopped"",""stopped"",""stopped"",""stopped"",""stopped"",""stopped"",""stopped"",""stopped"",""stopped"",""stopped"",""stopped"",""stopped"",""stopped"",""stopped"",""stopped"",""stopped"",""stopped"",""stopped"",""stopped"",""stopped"",""stopped"",""stopped"",""down"",""down"",""down"",""down"",""down"",""down"",""down"",""down"",""down"",""down"",""down"",""down"",""down"",""down"",""down"",""down"",""down"",""down"",""stopped"",""stopped"",""stopped"",""stopped"",""stopped"",""stopped"",""stopped"",""stopped"",""stopped"",""stopped"",""stopped"",""stopped"",""stopped"",""stopped"",""stopped"",""stopped"",""stopped"",""stopped"",""right"",""right"",""right"",""right"",""right"",""right"",""right"",""right""]","[0,0,0,0,0,0,0,0,0,0,0,0,0,0,0,0,0,0,0,0,0,0,0,0,0,1,1,1,1,1,1,1,1,1,1,1,1,1,1,1,0,0,0,0,0,0,0,0,0,0,0,0,0,0,0,0,0,0,0,0,0,0,0,0,0,0,0,0,0,0,0,0,0,0,0,0,0,1,1,1,1,1,1,1,1,1,1,1,1,1,1,1,1,1,1,0,0,0,0,0,0,0,0,0,0,0,0,0,0,0,0,0,0,1,1,1,1,1,1,1,1]",151,28,-15.5,1694,1,0,1,0,1,0,48,0,48,0,1,47,,,,,,,,,,,,,,,,,,,,,,,,,,,,,,
,,,,,,,,,,,,,,,,,,,,,5ec3241b63dd40000cba7af3,23,Female,2020-07-28_13h21.32.467,ProlificManual,3.2.2,Win32,60,5ec3241b63dd40000cba7af3,5f1f20d4c389060d55cb9bc4,5f20183615a22828cb609c01,,500,-400,0,124,3.5,0,"[""stopped"",""stopped"",""stopped"",""stopped"",""stopped"",""stopped"",""stopped"",""stopped"",""stopped"",""stopped"",""stopped"",""stopped"",""stopped"",""stopped"",""stopped"",""stopped"",""stopped"",""stopped"",""stopped"",""stopped"",""stopped"",""stopped"",""stopped"",""stopped"",""stopped"",""stopped"",""stopped"",""stopped"",""stopped"",""stopped"",""stopped"",""stopped"",""stopped"",""stopped"",""stopped"",""stopped"",""stopped"",""stopped"",""down"",""down"",""down"",""down"",""down"",""down"",""down"",""down"",""down"",""down"",""down"",""down"",""down"",""down"",""down"",""down"",""down"",""down"",""down"",""down"",""stopped"",""stopped"",""stopped"",""stopped"",""stopped"",""stopped"",""stopped"",""stopped"",""stopped"",""stopped"",""stopped"",""stopped"",""stopped"",""stopped"",""stopped"",""stopped"",""stopped"",""stopped"",""stopped"",""stopped"",""stopped"",""stopped"",""stopped"",""stopped"",""stopped"",""left"",""left"",""left"",""left"",""left"",""left"",""left"",""left"",""left"",""left"",""left"",""left"",""left"",""left"",""left"",""left"",""left"",""left"",""left"",""left"",""left"",""left"",""left"",""left"",""left"",""left"",""left"",""left"",""left"",""left"",""left"",""left"",""left"",""left"",""left"",""left"",""left"",""left""]","[0,0,0,0,0,0,0,0,0,0,0,0,0,0,0,0,0,0,0,0,0,0,0,0,0,0,0,0,0,0,0,0,0,0,0,0,0,0,1,1,1,1,1,1,1,1,1,1,1,1,1,1,1,1,1,1,1,1,0,0,0,0,0,0,0,0,0,0,0,0,0,0,0,0,0,0,0,0,0,0,0,0,0,1,1,1,1,1,1,1,1,1,1,1,1,1,1,1,1,1,1,1,1,1,1,1,1,1,1,1,1,1,1,1,1,1,1,1,1,1,1]",245,-133,30,3098,1,0,1,0,1,0,48,0,48,0,1,47,,,,,,,,,,,,,,,,,,,,,,,,,,,,,,
,,,,,,,,,,,,,,,,,,,,,5ec3241b63dd40000cba7af3,23,Female,2020-07-28_13h21.32.467,ProlificManual,3.2.2,Win32,60,5ec3241b63dd40000cba7af3,5f1f20d4c389060d55cb9bc4,5f20183615a22828cb609c01,,500,400,0,68,3.5,0,"[""stopped"",""stopped"",""stopped"",""stopped"",""stopped"",""stopped"",""stopped"",""stopped"",""stopped"",""stopped"",""stopped"",""stopped"",""stopped"",""stopped"",""stopped"",""stopped"",""stopped"",""stopped"",""stopped"",""stopped"",""stopped"",""stopped"",""stopped"",""stopped"",""stopped"",""stopped"",""stopped"",""stopped"",""stopped"",""stopped"",""stopped"",""stopped"",""stopped"",""stopped"",""stopped"",""stopped"",""stopped"",""stopped"",""stopped"",""stopped"",""stopped"",""stopped"",""stopped"",""stopped"",""stopped"",""stopped"",""stopped"",""stopped"",""stopped"",""stopped"",""stopped"",""stopped"",""stopped"",""stopped"",""stopped"",""stopped"",""stopped"",""stopped"",""stopped"",""stopped"",""stopped"",""stopped"",""stopped"",""stopped"",""stopped"",""stopped"",""stopped"",""stopped"",""stopped"",""stopped"",""stopped"",""stopped"",""stopped"",""stopped"",""stopped"",""stopped"",""stopped"",""stopped"",""stopped"",""stopped"",""stopped"",""stopped"",""stopped"",""stopped"",""stopped"",""stopped"",""stopped"",""stopped"",""stopped"",""stopped"",""stopped"",""stopped"",""stopped"",""stopped"",""stopped"",""stopped"",""stopped"",""stopped"",""stopped"",""stopped"",""stopped"",""stopped"",""stopped"",""stopped"",""stopped"",""stopped"",""stopped"",""stopped"",""stopped"",""stopped"",""stopped"",""stopped"",""stopped"",""stopped"",""stopped"",""stopped"",""stopped"",""stopped"",""stopped"",""stopped"",""stopped""]","[0,0,0,0,0,0,0,0,0,0,0,0,0,0,0,0,0,0,0,0,0,0,0,0,0,0,0,0,0,0,0,0,0,0,0,0,0,0,0,0,0,0,0,0,0,0,0,0,0,0,0,0,0,0,0,0,0,0,0,0,0,0,0,0,0,0,0,0,0,0,0,0,0,0,0,0,0,0,0,0,0,0,0,0,0,0,0,0,0,0,0,0,0,0,0,0,0,0,0,0,0,0,0,0,0,0,0,0,0,0,0,0,0,0,0,0,0,0,0,0,0]",NaN,0,100,1886,1,0,1,0,1,0,48,0,48,0,1,47,,,,,,,,,,,,,,,,,,,,,,,,,,,,,,
,,,,,,,,,,,,,,,,,,,,,5ec3241b63dd40000cba7af3,23,Female,2020-07-28_13h21.32.467,ProlificManual,3.2.2,Win32,60,5ec3241b63dd40000cba7af3,5f1f20d4c389060d55cb9bc4,5f20183615a22828cb609c01,,500,400,0,79,3.5,0,"[""stopped"",""stopped"",""stopped"",""stopped"",""stopped"",""stopped"",""stopped"",""stopped"",""stopped"",""stopped"",""stopped"",""stopped"",""stopped"",""stopped"",""stopped"",""stopped"",""stopped"",""stopped"",""stopped"",""stopped"",""stopped"",""stopped"",""stopped"",""stopped"",""stopped"",""stopped"",""stopped"",""stopped"",""stopped"",""stopped"",""stopped"",""stopped"",""stopped"",""stopped"",""stopped"",""stopped"",""stopped"",""stopped"",""stopped"",""stopped"",""stopped"",""stopped"",""stopped"",""stopped"",""stopped"",""stopped"",""stopped"",""stopped"",""stopped"",""stopped"",""stopped"",""stopped"",""stopped"",""stopped"",""stopped"",""stopped"",""stopped"",""stopped"",""stopped"",""stopped"",""stopped"",""stopped"",""stopped"",""stopped"",""stopped"",""stopped"",""stopped"",""stopped"",""stopped"",""stopped"",""stopped"",""stopped"",""stopped"",""stopped"",""stopped"",""stopped"",""stopped"",""stopped"",""stopped"",""stopped"",""stopped"",""stopped"",""stopped"",""stopped"",""stopped"",""stopped"",""stopped"",""stopped"",""stopped"",""stopped"",""stopped"",""stopped"",""stopped"",""stopped"",""stopped"",""stopped"",""stopped"",""stopped"",""stopped"",""stopped"",""stopped"",""stopped"",""stopped"",""stopped"",""stopped"",""stopped"",""stopped"",""stopped"",""stopped"",""stopped"",""stopped"",""stopped"",""stopped"",""stopped"",""stopped"",""stopped"",""stopped"",""stopped"",""stopped"",""stopped"",""stopped""]","[0,0,0,0,0,0,0,0,0,0,0,0,0,0,0,0,0,0,0,0,0,0,0,0,0,0,0,0,0,0,0,0,0,0,0,0,0,0,0,0,0,0,0,0,0,0,0,0,0,0,0,0,0,0,0,0,0,0,0,0,0,0,0,0,0,0,0,0,0,0,0,0,0,0,0,0,0,0,0,0,0,0,0,0,0,0,0,0,0,0,0,0,0,0,0,0,0,0,0,0,0,0,0,0,0,0,0,0,0,0,0,0,0,0,0,0,0,0,0,0,0]",NaN,0,100,1759,1,0,1,0,1,0,48,0,48,0,1,47,,,,,,,,,,,,,,,,,,,,,,,,,,,,,,
,,,,,,,,,,,,,,,,,,,,,5ec3241b63dd40000cba7af3,23,Female,2020-07-28_13h21.32.467,ProlificManual,3.2.2,Win32,60,5ec3241b63dd40000cba7af3,5f1f20d4c389060d55cb9bc4,5f20183615a22828cb609c01,,400,-300,0,150,3.5,0,"[""stopped"",""stopped"",""stopped"",""stopped"",""stopped"",""stopped"",""stopped"",""stopped"",""stopped"",""stopped"",""stopped"",""stopped"",""stopped"",""stopped"",""stopped"",""stopped"",""stopped"",""stopped"",""stopped"",""stopped"",""stopped"",""stopped"",""stopped"",""stopped"",""stopped"",""stopped"",""stopped"",""stopped"",""stopped"",""stopped"",""stopped"",""stopped"",""stopped"",""stopped"",""stopped"",""stopped"",""stopped"",""stopped"",""stopped"",""stopped"",""stopped"",""stopped"",""stopped"",""stopped"",""stopped"",""stopped"",""stopped"",""stopped"",""stopped"",""stopped"",""stopped"",""stopped"",""stopped"",""down"",""down"",""down"",""down"",""down"",""down"",""down"",""down"",""down"",""down"",""down"",""down"",""down"",""down"",""down"",""down"",""down"",""down"",""down"",""down"",""down"",""down"",""down"",""down"",""down"",""down"",""down"",""down"",""down"",""down"",""down"",""stopped"",""stopped"",""stopped"",""stopped"",""stopped"",""stopped"",""stopped"",""stopped"",""stopped"",""stopped"",""stopped"",""stopped"",""stopped"",""stopped"",""stopped"",""stopped"",""stopped"",""stopped"",""stopped"",""stopped"",""stopped"",""left"",""left"",""left"",""left"",""left"",""left"",""left"",""left"",""left"",""left"",""left"",""left"",""left"",""left"",""left"",""left""]","[0,0,0,0,0,0,0,0,0,0,0,0,0,0,0,0,0,0,0,0,0,0,0,0,0,0,0,0,0,0,0,0,0,0,0,0,0,0,0,0,0,0,0,0,0,0,0,0,0,0,0,0,0,1,1,1,1,1,1,1,1,1,1,1,1,1,1,1,1,1,1,1,1,1,1,1,1,1,1,1,1,1,1,1,0,0,0,0,0,0,0,0,0,0,0,0,0,0,0,0,0,0,0,0,0,1,1,1,1,1,1,1,1,1,1,1,1,1,1,1,1]",321,-56,-8.5,3505,1,0,1,0,1,0,48,0,48,0,1,47,,,,,,,,,,,,,,,,,,,,,,,,,,,,,,
,,,,,,,,,,,,,,,,,,,,,5ec3241b63dd40000cba7af3,23,Female,2020-07-28_13h21.32.467,ProlificManual,3.2.2,Win32,60,5ec3241b63dd40000cba7af3,5f1f20d4c389060d55cb9bc4,5f20183615a22828cb609c01,,200,100,0,143,3.5,1,"[""stopped"",""stopped"",""stopped"",""stopped"",""stopped"",""stopped"",""stopped"",""stopped"",""stopped"",""stopped"",""stopped"",""stopped"",""stopped"",""stopped"",""stopped"",""stopped"",""stopped"",""stopped"",""stopped"",""stopped"",""stopped"",""stopped"",""stopped"",""stopped"",""stopped"",""stopped"",""stopped"",""stopped"",""stopped"",""stopped"",""stopped"",""stopped"",""stopped"",""stopped"",""stopped"",""stopped"",""stopped"",""down"",""down"",""down"",""down"",""down"",""down"",""down"",""down"",""down"",""down"",""down"",""down"",""down"",""down"",""down"",""down"",""down"",""down"",""down"",""down"",""down"",""down"",""down"",""down"",""down"",""down"",""down"",""down"",""stopped"",""stopped"",""stopped"",""stopped"",""stopped"",""stopped"",""stopped"",""stopped"",""stopped"",""stopped"",""stopped"",""stopped"",""stopped"",""stopped"",""stopped"",""stopped"",""stopped"",""stopped"",""stopped"",""stopped"",""stopped"",""right"",""right"",""right"",""right"",""right"",""right"",""right"",""right"",""right"",""right"",""right"",""right"",""right"",""right"",""right"",""right""]","[0,0,0,0,0,0,0,0,0,0,0,0,0,0,0,0,0,0,0,0,0,0,0,0,0,0,0,0,0,0,0,0,0,0,0,0,0,1,1,1,1,1,1,1,1,1,1,1,1,1,1,1,1,1,1,1,1,1,1,1,1,1,1,1,1,0,0,0,0,0,0,0,0,0,0,0,0,0,0,0,0,0,0,0,0,0,1,1,1,1,1,1,1,1,1,1,1,1,1,1,1,1]",225,56,2,4117,1,0,1,0,1,0,48,0,48,0,1,47,,,,,,,,,,,,,,,,,,,,,,,,,,,,,,
,,,,,,,,,,,,,,,,,,,,,5ec3241b63dd40000cba7af3,23,Female,2020-07-28_13h21.32.467,ProlificManual,3.2.2,Win32,60,5ec3241b63dd40000cba7af3,5f1f20d4c389060d55cb9bc4,5f20183615a22828cb609c01,,400,300,0,62,3.5,0,"[""stopped"",""stopped"",""stopped"",""stopped"",""stopped"",""stopped"",""stopped"",""stopped"",""stopped"",""stopped"",""stopped"",""stopped"",""stopped"",""stopped"",""stopped"",""stopped"",""stopped"",""stopped"",""stopped"",""stopped"",""stopped"",""stopped"",""stopped"",""stopped"",""stopped"",""stopped"",""stopped"",""stopped"",""stopped"",""stopped"",""stopped"",""stopped"",""stopped"",""stopped"",""stopped"",""stopped"",""stopped"",""stopped"",""stopped"",""stopped"",""stopped"",""stopped"",""stopped"",""stopped"",""stopped"",""stopped"",""stopped"",""stopped"",""stopped"",""stopped"",""stopped"",""stopped"",""stopped"",""stopped"",""stopped"",""stopped"",""stopped"",""stopped"",""stopped"",""stopped"",""stopped"",""stopped"",""stopped"",""stopped"",""stopped"",""stopped"",""down"",""down"",""down"",""down"",""down"",""down"",""down"",""down"",""down"",""down"",""down"",""down"",""down"",""down"",""down"",""down"",""down"",""down"",""down"",""down"",""down"",""down"",""down"",""down"",""down"",""down"",""down"",""down"",""down"",""down"",""down"",""down"",""stopped"",""stopped"",""stopped"",""stopped"",""stopped"",""stopped"",""stopped"",""stopped"",""stopped"",""stopped"",""stopped"",""stopped"",""stopped"",""stopped"",""stopped"",""stopped"",""stopped"",""stopped"",""stopped"",""stopped"",""right"",""right"",""right""]","[0,0,0,0,0,0,0,0,0,0,0,0,0,0,0,0,0,0,0,0,0,0,0,0,0,0,0,0,0,0,0,0,0,0,0,0,0,0,0,0,0,0,0,0,0,0,0,0,0,0,0,0,0,0,0,0,0,0,0,0,0,0,0,0,0,0,1,1,1,1,1,1,1,1,1,1,1,1,1,1,1,1,1,1,1,1,1,1,1,1,1,1,1,1,1,1,1,1,0,0,0,0,0,0,0,0,0,0,0,0,0,0,0,0,0,0,0,0,1,1,1]",400,10.5,-12,1788,1,0,1,0,1,0,48,0,48,0,1,47,,,,,,,,,,,,,,,,,,,,,,,,,,,,,,
,,,,,,,,,,,,,,,,,,,,,5ec3241b63dd40000cba7af3,23,Female,2020-07-28_13h21.32.467,ProlificManual,3.2.2,Win32,60,5ec3241b63dd40000cba7af3,5f1f20d4c389060d55cb9bc4,5f20183615a22828cb609c01,,500,-400,0,143,3.5,0,"[""stopped"",""stopped"",""stopped"",""stopped"",""stopped"",""stopped"",""stopped"",""stopped"",""stopped"",""stopped"",""stopped"",""stopped"",""stopped"",""stopped"",""stopped"",""stopped"",""stopped"",""stopped"",""stopped"",""stopped"",""stopped"",""stopped"",""stopped"",""stopped"",""stopped"",""stopped"",""stopped"",""stopped"",""stopped"",""stopped"",""stopped"",""stopped"",""stopped"",""stopped"",""down"",""down"",""down"",""down"",""down"",""down"",""down"",""down"",""down"",""down"",""down"",""down"",""down"",""down"",""down"",""down"",""down"",""down"",""down"",""down"",""down"",""down"",""down"",""stopped"",""stopped"",""stopped"",""stopped"",""stopped"",""stopped"",""stopped"",""stopped"",""stopped"",""stopped"",""stopped"",""stopped"",""stopped"",""stopped"",""stopped"",""stopped"",""stopped"",""stopped"",""stopped"",""stopped"",""stopped"",""stopped"",""stopped"",""stopped"",""stopped"",""stopped"",""left"",""left"",""left"",""left"",""left"",""left"",""left"",""left"",""left"",""left"",""left"",""left"",""left"",""left"",""left"",""left"",""left"",""left"",""left"",""left"",""left"",""left"",""left"",""left"",""left"",""left"",""left"",""left"",""left"",""left"",""left"",""left"",""left"",""left"",""left"",""left"",""left"",""left""]","[0,0,0,0,0,0,0,0,0,0,0,0,0,0,0,0,0,0,0,0,0,0,0,0,0,0,0,0,0,0,0,0,0,0,1,1,1,1,1,1,1,1,1,1,1,1,1,1,1,1,1,1,1,1,1,1,1,0,0,0,0,0,0,0,0,0,0,0,0,0,0,0,0,0,0,0,0,0,0,0,0,0,0,1,1,1,1,1,1,1,1,1,1,1,1,1,1,1,1,1,1,1,1,1,1,1,1,1,1,1,1,1,1,1,1,1,1,1,1,1,1]",207,-133,19.5,2304,1,0,1,0,1,0,48,0,48,0,1,47,,,,,,,,,,,,,,,,,,,,,,,,,,,,,,
,,,,,,,,,,,,,,,,,,,,,5ec3241b63dd40000cba7af3,23,Female,2020-07-28_13h21.32.467,ProlificManual,3.2.2,Win32,60,5ec3241b63dd40000cba7af3,5f1f20d4c389060d55cb9bc4,5f20183615a22828cb609c01,,200,100,0,133,3.5,0,"[""stopped"",""stopped"",""stopped"",""stopped"",""stopped"",""stopped"",""stopped"",""stopped"",""stopped"",""stopped"",""stopped"",""stopped"",""stopped"",""stopped"",""stopped"",""stopped"",""stopped"",""stopped"",""stopped"",""stopped"",""stopped"",""stopped"",""stopped"",""stopped"",""stopped"",""stopped"",""stopped"",""stopped"",""stopped"",""stopped"",""stopped"",""stopped"",""stopped"",""stopped"",""stopped"",""stopped"",""stopped"",""stopped"",""stopped"",""stopped"",""stopped"",""stopped"",""stopped"",""stopped"",""stopped"",""stopped"",""stopped"",""stopped"",""stopped"",""stopped"",""stopped"",""stopped"",""stopped"",""stopped"",""stopped"",""stopped"",""stopped"",""stopped"",""stopped"",""stopped"",""stopped"",""stopped"",""stopped"",""down"",""down"",""down"",""down"",""down"",""down"",""down"",""down"",""down"",""down"",""down"",""down"",""down"",""down"",""down"",""down"",""down"",""down"",""down"",""down"",""down"",""down"",""down"",""down"",""down"",""down"",""stopped"",""stopped"",""stopped"",""stopped"",""stopped"",""stopped"",""stopped"",""stopped"",""stopped"",""stopped"",""stopped"",""stopped"",""stopped"",""stopped"",""stopped"",""stopped"",""stopped"",""stopped"",""stopped"",""stopped"",""stopped"",""stopped"",""right"",""right"",""right"",""right"",""right"",""right"",""right"",""right"",""right"",""right""]","[0,0,0,0,0,0,0,0,0,0,0,0,0,0,0,0,0,0,0,0,0,0,0,0,0,0,0,0,0,0,0,0,0,0,0,0,0,0,0,0,0,0,0,0,0,0,0,0,0,0,0,0,0,0,0,0,0,0,0,0,0,0,0,1,1,1,1,1,1,1,1,1,1,1,1,1,1,1,1,1,1,1,1,1,1,1,1,1,1,0,0,0,0,0,0,0,0,0,0,0,0,0,0,0,0,0,0,0,0,0,0,1,1,1,1,1,1,1,1,1,1]",382,35,9,2726,1,0,1,0,1,0,48,0,48,0,1,47,,,,,,,,,,,,,,,,,,,,,,,,,,,,,,
,,,,,,,,,,,,,,,,,,,,,5ec3241b63dd40000cba7af3,23,Female,2020-07-28_13h21.32.467,ProlificManual,3.2.2,Win32,60,5ec3241b63dd40000cba7af3,5f1f20d4c389060d55cb9bc4,5f20183615a22828cb609c01,,200,-100,0,115,3.5,1,"[""stopped"",""stopped"",""stopped"",""stopped"",""stopped"",""stopped"",""stopped"",""stopped"",""stopped"",""stopped"",""stopped"",""stopped"",""stopped"",""stopped"",""stopped"",""stopped"",""stopped"",""stopped"",""stopped"",""stopped"",""stopped"",""stopped"",""stopped"",""stopped"",""stopped"",""stopped"",""stopped"",""stopped"",""stopped"",""stopped"",""stopped"",""stopped"",""stopped"",""stopped"",""stopped"",""stopped"",""stopped"",""stopped"",""stopped"",""stopped"",""stopped"",""stopped"",""stopped"",""stopped"",""stopped"",""stopped"",""stopped"",""stopped"",""stopped"",""stopped"",""stopped"",""stopped"",""stopped"",""stopped"",""stopped"",""stopped"",""stopped"",""down"",""down"",""down"",""down"",""down"",""down"",""down"",""down"",""down"",""down"",""down"",""down"",""down"",""down"",""down"",""down"",""down"",""down"",""down"",""down"",""down"",""down"",""down"",""down"",""stopped"",""stopped"",""stopped"",""stopped"",""stopped"",""stopped"",""stopped"",""stopped"",""stopped"",""stopped"",""stopped"",""stopped"",""stopped"",""stopped"",""stopped"",""stopped"",""stopped"",""stopped"",""stopped"",""stopped"",""stopped"",""stopped"",""stopped"",""left"",""left"",""left"",""left"",""left"",""left"",""left"",""left"",""left"",""left"",""left"",""left"",""left"",""left"",""left"",""left"",""left""]","[0,0,0,0,0,0,0,0,0,0,0,0,0,0,0,0,0,0,0,0,0,0,0,0,0,0,0,0,0,0,0,0,0,0,0,0,0,0,0,0,0,0,0,0,0,0,0,0,0,0,0,0,0,0,0,0,0,1,1,1,1,1,1,1,1,1,1,1,1,1,1,1,1,1,1,1,1,1,1,1,1,0,0,0,0,0,0,0,0,0,0,0,0,0,0,0,0,0,0,0,0,0,0,0,1,1,1,1,1,1,1,1,1,1,1,1,1,1,1,1,1]",346,-59.5,16,3191,1,0,1,0,1,0,48,0,48,0,1,47,,,,,,,,,,,,,,,,,,,,,,,,,,,,,,
,,,,,,,,,,,,,,,,,,,,,5ec3241b63dd40000cba7af3,23,Female,2020-07-28_13h21.32.467,ProlificManual,3.2.2,Win32,60,5ec3241b63dd40000cba7af3,5f1f20d4c389060d55cb9bc4,5f20183615a22828cb609c01,,200,-100,0,83,3.5,1,"[""stopped"",""stopped"",""stopped"",""stopped"",""stopped"",""stopped"",""stopped"",""stopped"",""stopped"",""stopped"",""stopped"",""stopped"",""stopped"",""stopped"",""stopped"",""stopped"",""stopped"",""stopped"",""stopped"",""stopped"",""stopped"",""stopped"",""stopped"",""stopped"",""stopped"",""stopped"",""stopped"",""stopped"",""stopped"",""stopped"",""stopped"",""stopped"",""stopped"",""stopped"",""stopped"",""stopped"",""stopped"",""stopped"",""stopped"",""stopped"",""stopped"",""stopped"",""stopped"",""stopped"",""down"",""down"",""down"",""down"",""down"",""down"",""down"",""down"",""down"",""down"",""down"",""down"",""down"",""down"",""down"",""down"",""down"",""down"",""down"",""down"",""down"",""down"",""down"",""down"",""down"",""down"",""down"",""down"",""down"",""down"",""stopped"",""stopped"",""stopped"",""stopped"",""stopped"",""stopped"",""stopped"",""stopped"",""stopped"",""stopped"",""stopped"",""stopped"",""stopped"",""stopped"",""stopped"",""stopped"",""stopped"",""stopped"",""stopped"",""stopped"",""left"",""left"",""left"",""left"",""left"",""left"",""left"",""left"",""left"",""left"",""left"",""left"",""left"",""left"",""left"",""left""]","[0,0,0,0,0,0,0,0,0,0,0,0,0,0,0,0,0,0,0,0,0,0,0,0,0,0,0,0,0,0,0,0,0,0,0,0,0,0,0,0,0,0,0,0,1,1,1,1,1,1,1,1,1,1,1,1,1,1,1,1,1,1,1,1,1,1,1,1,1,1,1,1,1,1,0,0,0,0,0,0,0,0,0,0,0,0,0,0,0,0,0,0,0,0,1,1,1,1,1,1,1,1,1,1,1,1,1,1,1,1]",266,-56,-5,2121,1,0,1,0,1,0,48,0,48,0,1,47,,,,,,,,,,,,,,,,,,,,,,,,,,,,,,
,,,,,,,,,,,,,,,,,,,,,5ec3241b63dd40000cba7af3,23,Female,2020-07-28_13h21.32.467,ProlificManual,3.2.2,Win32,60,5ec3241b63dd40000cba7af3,5f1f20d4c389060d55cb9bc4,5f20183615a22828cb609c01,,200,100,0,83,3.5,0,"[""stopped"",""stopped"",""stopped"",""stopped"",""stopped"",""stopped"",""stopped"",""stopped"",""stopped"",""stopped"",""stopped"",""stopped"",""stopped"",""stopped"",""stopped"",""stopped"",""stopped"",""stopped"",""stopped"",""stopped"",""stopped"",""stopped"",""stopped"",""stopped"",""stopped"",""stopped"",""stopped"",""stopped"",""stopped"",""stopped"",""stopped"",""stopped"",""stopped"",""stopped"",""stopped"",""stopped"",""stopped"",""stopped"",""stopped"",""stopped"",""stopped"",""stopped"",""stopped"",""stopped"",""stopped"",""stopped"",""stopped"",""stopped"",""stopped"",""stopped"",""stopped"",""stopped"",""stopped"",""stopped"",""stopped"",""stopped"",""stopped"",""down"",""down"",""down"",""down"",""down"",""down"",""down"",""down"",""down"",""down"",""down"",""down"",""down"",""down"",""down"",""down"",""down"",""down"",""down"",""down"",""down"",""stopped"",""stopped"",""stopped"",""stopped"",""stopped"",""stopped"",""stopped"",""stopped"",""stopped"",""stopped"",""stopped"",""stopped"",""stopped"",""stopped"",""stopped"",""stopped"",""stopped"",""stopped"",""stopped"",""stopped"",""stopped"",""stopped"",""stopped"",""stopped"",""stopped"",""stopped"",""stopped"",""right"",""right"",""right"",""right"",""right"",""right"",""right"",""right"",""right"",""right"",""right"",""right"",""right"",""right"",""right"",""right""]","[0,0,0,0,0,0,0,0,0,0,0,0,0,0,0,0,0,0,0,0,0,0,0,0,0,0,0,0,0,0,0,0,0,0,0,0,0,0,0,0,0,0,0,0,0,0,0,0,0,0,0,0,0,0,0,0,0,1,1,1,1,1,1,1,1,1,1,1,1,1,1,1,1,1,1,1,1,1,0,0,0,0,0,0,0,0,0,0,0,0,0,0,0,0,0,0,0,0,0,0,0,0,0,0,0,1,1,1,1,1,1,1,1,1,1,1,1,1,1,1,1]",346,56,26.5,2272,1,0,1,0,1,0,48,0,48,0,1,47,,,,,,,,,,,,,,,,,,,,,,,,,,,,,,
,,,,,,,,,,,,,,,,,,,,,5ec3241b63dd40000cba7af3,23,Female,2020-07-28_13h21.32.467,ProlificManual,3.2.2,Win32,60,5ec3241b63dd40000cba7af3,5f1f20d4c389060d55cb9bc4,5f20183615a22828cb609c01,,400,-300,0,61,3.5,0,"[""stopped"",""stopped"",""stopped"",""stopped"",""stopped"",""stopped"",""stopped"",""stopped"",""stopped"",""stopped"",""stopped"",""stopped"",""stopped"",""stopped"",""stopped"",""stopped"",""stopped"",""stopped"",""stopped"",""stopped"",""stopped"",""stopped"",""stopped"",""stopped"",""stopped"",""stopped"",""stopped"",""stopped"",""stopped"",""stopped"",""stopped"",""stopped"",""stopped"",""stopped"",""stopped"",""stopped"",""stopped"",""stopped"",""stopped"",""stopped"",""stopped"",""stopped"",""stopped"",""stopped"",""stopped"",""stopped"",""stopped"",""stopped"",""down"",""down"",""down"",""down"",""down"",""down"",""down"",""down"",""down"",""down"",""down"",""down"",""down"",""down"",""down"",""down"",""down"",""down"",""down"",""down"",""down"",""down"",""down"",""stopped"",""stopped"",""stopped"",""stopped"",""stopped"",""stopped"",""stopped"",""stopped"",""stopped"",""stopped"",""stopped"",""stopped"",""stopped"",""stopped"",""stopped"",""stopped"",""stopped"",""left"",""left"",""left"",""left"",""left"",""left"",""left"",""left"",""left"",""left"",""left"",""left"",""left"",""left"",""left"",""left"",""left"",""left"",""left"",""left"",""left"",""left"",""left"",""left"",""left"",""left"",""left"",""left"",""left"",""left"",""left"",""left"",""left""]","[0,0,0,0,0,0,0,0,0,0,0,0,0,0,0,0,0,0,0,0,0,0,0,0,0,0,0,0,0,0,0,0,0,0,0,0,0,0,0,0,0,0,0,0,0,0,0,0,1,1,1,1,1,1,1,1,1,1,1,1,1,1,1,1,1,1,1,1,1,1,1,0,0,0,0,0,0,0,0,0,0,0,0,0,0,0,0,0,1,1,1,1,1,1,1,1,1,1,1,1,1,1,1,1,1,1,1,1,1,1,1,1,1,1,1,1,1,1,1,1,1]",291,-115.5,19.5,1673,1,0,1,0,1,0,48,0,48,0,1,47,,,,,,,,,,,,,,,,,,,,,,,,,,,,,,
,,,,,,,,,,,,,,,,,,,,,5ec3241b63dd40000cba7af3,23,Female,2020-07-28_13h21.32.467,ProlificManual,3.2.2,Win32,60,5ec3241b63dd40000cba7af3,5f1f20d4c389060d55cb9bc4,5f20183615a22828cb609c01,,500,400,0,84,3.5,0,"[""stopped"",""stopped"",""stopped"",""stopped"",""stopped"",""stopped"",""stopped"",""stopped"",""stopped"",""stopped"",""stopped"",""stopped"",""stopped"",""stopped"",""stopped"",""stopped"",""stopped"",""stopped"",""stopped"",""stopped"",""stopped"",""stopped"",""stopped"",""stopped"",""stopped"",""stopped"",""stopped"",""stopped"",""stopped"",""stopped"",""stopped"",""stopped"",""stopped"",""stopped"",""stopped"",""stopped"",""stopped"",""stopped"",""stopped"",""stopped"",""stopped"",""stopped"",""stopped"",""stopped"",""stopped"",""stopped"",""stopped"",""stopped"",""stopped"",""stopped"",""stopped"",""stopped"",""stopped"",""stopped"",""down"",""down"",""down"",""down"",""down"",""down"",""down"",""down"",""down"",""down"",""down"",""down"",""down"",""down"",""down"",""down"",""down"",""down"",""down"",""down"",""down"",""down"",""down"",""stopped"",""stopped"",""stopped"",""stopped"",""stopped"",""stopped"",""stopped"",""stopped"",""stopped"",""stopped"",""stopped"",""stopped"",""stopped"",""stopped"",""stopped"",""stopped"",""stopped"",""stopped"",""stopped"",""stopped"",""stopped"",""stopped"",""right"",""right"",""right"",""right"",""right"",""right"",""right"",""right"",""right"",""right"",""right"",""right"",""right"",""right"",""right"",""right"",""right"",""right"",""right"",""right"",""right"",""right""]","[0,0,0,0,0,0,0,0,0,0,0,0,0,0,0,0,0,0,0,0,0,0,0,0,0,0,0,0,0,0,0,0,0,0,0,0,0,0,0,0,0,0,0,0,0,0,0,0,0,0,0,0,0,0,1,1,1,1,1,1,1,1,1,1,1,1,1,1,1,1,1,1,1,1,1,1,1,0,0,0,0,0,0,0,0,0,0,0,0,0,0,0,0,0,0,0,0,0,0,1,1,1,1,1,1,1,1,1,1,1,1,1,1,1,1,1,1,1,1,1,1]",327,77,19.5,2405,1,0,1,0,1,0,48,0,48,0,1,47,,,,,,,,,,,,,,,,,,,,,,,,,,,,,,
,,,,,,,,,,,,,,,,,,,,,5ec3241b63dd40000cba7af3,23,Female,2020-07-28_13h21.32.467,ProlificManual,3.2.2,Win32,60,5ec3241b63dd40000cba7af3,5f1f20d4c389060d55cb9bc4,5f20183615a22828cb609c01,,300,-200,0,132,3.5,0,"[""stopped"",""stopped"",""stopped"",""stopped"",""stopped"",""stopped"",""stopped"",""stopped"",""stopped"",""stopped"",""stopped"",""stopped"",""stopped"",""stopped"",""stopped"",""stopped"",""stopped"",""stopped"",""stopped"",""stopped"",""stopped"",""stopped"",""stopped"",""stopped"",""stopped"",""stopped"",""stopped"",""stopped"",""stopped"",""stopped"",""stopped"",""stopped"",""stopped"",""stopped"",""stopped"",""stopped"",""stopped"",""stopped"",""stopped"",""stopped"",""stopped"",""stopped"",""stopped"",""stopped"",""stopped"",""stopped"",""stopped"",""stopped"",""stopped"",""stopped"",""stopped"",""stopped"",""stopped"",""stopped"",""down"",""down"",""down"",""down"",""down"",""down"",""down"",""down"",""down"",""down"",""down"",""down"",""down"",""down"",""down"",""down"",""down"",""down"",""down"",""down"",""down"",""down"",""down"",""stopped"",""stopped"",""stopped"",""stopped"",""stopped"",""stopped"",""stopped"",""stopped"",""stopped"",""stopped"",""stopped"",""stopped"",""stopped"",""stopped"",""stopped"",""stopped"",""stopped"",""stopped"",""stopped"",""left"",""left"",""left"",""left"",""left"",""left"",""left"",""left"",""left"",""left"",""left"",""left"",""left"",""left"",""left"",""left"",""left"",""left"",""left"",""left"",""left"",""left"",""left"",""left"",""left""]","[0,0,0,0,0,0,0,0,0,0,0,0,0,0,0,0,0,0,0,0,0,0,0,0,0,0,0,0,0,0,0,0,0,0,0,0,0,0,0,0,0,0,0,0,0,0,0,0,0,0,0,0,0,0,1,1,1,1,1,1,1,1,1,1,1,1,1,1,1,1,1,1,1,1,1,1,1,0,0,0,0,0,0,0,0,0,0,0,0,0,0,0,0,0,0,0,1,1,1,1,1,1,1,1,1,1,1,1,1,1,1,1,1,1,1,1,1,1,1,1,1]",327,-87.5,19.5,2208,1,0,1,0,1,0,48,0,48,0,1,47,,,,,,,,,,,,,,,,,,,,,,,,,,,,,,
,,,,,,,,,,,,,,,,,,,,,5ec3241b63dd40000cba7af3,23,Female,2020-07-28_13h21.32.467,ProlificManual,3.2.2,Win32,60,5ec3241b63dd40000cba7af3,5f1f20d4c389060d55cb9bc4,5f20183615a22828cb609c01,,200,-100,0,102,3.5,1,"[""stopped"",""stopped"",""stopped"",""stopped"",""stopped"",""stopped"",""stopped"",""stopped"",""stopped"",""stopped"",""stopped"",""stopped"",""stopped"",""stopped"",""stopped"",""stopped"",""stopped"",""stopped"",""stopped"",""stopped"",""stopped"",""stopped"",""stopped"",""stopped"",""stopped"",""stopped"",""stopped"",""stopped"",""stopped"",""stopped"",""stopped"",""stopped"",""stopped"",""stopped"",""stopped"",""stopped"",""stopped"",""stopped"",""stopped"",""stopped"",""stopped"",""stopped"",""stopped"",""stopped"",""stopped"",""stopped"",""stopped"",""stopped"",""stopped"",""stopped"",""stopped"",""stopped"",""stopped"",""stopped"",""stopped"",""down"",""down"",""down"",""down"",""down"",""down"",""down"",""down"",""down"",""down"",""down"",""down"",""down"",""down"",""down"",""down"",""down"",""down"",""down"",""down"",""down"",""down"",""down"",""down"",""down"",""down"",""down"",""down"",""down"",""down"",""down"",""down"",""stopped"",""stopped"",""stopped"",""stopped"",""stopped"",""stopped"",""stopped"",""stopped"",""stopped"",""stopped"",""stopped"",""stopped"",""stopped"",""stopped"",""stopped"",""stopped"",""left"",""left"",""left"",""left"",""left"",""left"",""left"",""left"",""left"",""left"",""left"",""left"",""left"",""left"",""left"",""left"",""left""]","[0,0,0,0,0,0,0,0,0,0,0,0,0,0,0,0,0,0,0,0,0,0,0,0,0,0,0,0,0,0,0,0,0,0,0,0,0,0,0,0,0,0,0,0,0,0,0,0,0,0,0,0,0,0,0,1,1,1,1,1,1,1,1,1,1,1,1,1,1,1,1,1,1,1,1,1,1,1,1,1,1,1,1,1,1,1,1,0,0,0,0,0,0,0,0,0,0,0,0,0,0,0,0,1,1,1,1,1,1,1,1,1,1,1,1,1,1,1,1,1]",346,-59.5,-12,2135,1,0,1,0,1,0,48,0,48,0,1,47,,,,,,,,,,,,,,,,,,,,,,,,,,,,,,
,,,,,,,,,,,,,,,,,,,,,5ec3241b63dd40000cba7af3,23,Female,2020-07-28_13h21.32.467,ProlificManual,3.2.2,Win32,60,5ec3241b63dd40000cba7af3,5f1f20d4c389060d55cb9bc4,5f20183615a22828cb609c01,,400,-300,0,108,3.5,0,"[""stopped"",""stopped"",""stopped"",""stopped"",""stopped"",""stopped"",""stopped"",""stopped"",""stopped"",""stopped"",""stopped"",""stopped"",""stopped"",""stopped"",""stopped"",""stopped"",""stopped"",""stopped"",""stopped"",""stopped"",""stopped"",""stopped"",""stopped"",""stopped"",""stopped"",""stopped"",""stopped"",""stopped"",""stopped"",""stopped"",""stopped"",""stopped"",""stopped"",""stopped"",""stopped"",""stopped"",""stopped"",""stopped"",""stopped"",""stopped"",""stopped"",""stopped"",""stopped"",""stopped"",""down"",""down"",""down"",""down"",""down"",""down"",""down"",""down"",""down"",""down"",""down"",""down"",""down"",""down"",""down"",""down"",""down"",""down"",""down"",""down"",""down"",""down"",""down"",""down"",""down"",""stopped"",""stopped"",""stopped"",""stopped"",""stopped"",""stopped"",""stopped"",""stopped"",""stopped"",""stopped"",""stopped"",""stopped"",""stopped"",""stopped"",""stopped"",""stopped"",""stopped"",""stopped"",""stopped"",""stopped"",""stopped"",""stopped"",""stopped"",""stopped"",""stopped"",""stopped"",""stopped"",""stopped"",""left"",""left"",""left"",""left"",""left"",""left"",""left"",""left"",""left"",""left"",""left"",""left"",""left"",""left"",""left"",""left"",""left"",""left"",""left"",""left"",""left"",""left"",""left"",""left""]","[0,0,0,0,0,0,0,0,0,0,0,0,0,0,0,0,0,0,0,0,0,0,0,0,0,0,0,0,0,0,0,0,0,0,0,0,0,0,0,0,0,0,0,0,1,1,1,1,1,1,1,1,1,1,1,1,1,1,1,1,1,1,1,1,1,1,1,1,1,0,0,0,0,0,0,0,0,0,0,0,0,0,0,0,0,0,0,0,0,0,0,0,0,0,0,0,0,1,1,1,1,1,1,1,1,1,1,1,1,1,1,1,1,1,1,1,1,1,1,1,1]",285,-84,12.5,1928,1,0,1,0,1,0,48,0,48,0,1,47,,,,,,,,,,,,,,,,,,,,,,,,,,,,,,
,,,,,,,,,,,,,,,,,,,,,5ec3241b63dd40000cba7af3,23,Female,2020-07-28_13h21.32.467,ProlificManual,3.2.2,Win32,60,5ec3241b63dd40000cba7af3,5f1f20d4c389060d55cb9bc4,5f20183615a22828cb609c01,,300,200,0,71,3.5,0,"[""stopped"",""stopped"",""stopped"",""stopped"",""stopped"",""stopped"",""stopped"",""stopped"",""stopped"",""stopped"",""stopped"",""stopped"",""stopped"",""stopped"",""stopped"",""stopped"",""stopped"",""stopped"",""stopped"",""stopped"",""stopped"",""stopped"",""stopped"",""stopped"",""stopped"",""stopped"",""stopped"",""stopped"",""stopped"",""stopped"",""stopped"",""stopped"",""stopped"",""stopped"",""stopped"",""stopped"",""stopped"",""stopped"",""stopped"",""stopped"",""stopped"",""stopped"",""stopped"",""stopped"",""stopped"",""stopped"",""stopped"",""stopped"",""down"",""down"",""down"",""down"",""down"",""down"",""down"",""down"",""down"",""down"",""down"",""down"",""down"",""down"",""down"",""down"",""down"",""down"",""down"",""down"",""down"",""stopped"",""stopped"",""stopped"",""stopped"",""stopped"",""stopped"",""stopped"",""stopped"",""stopped"",""stopped"",""stopped"",""stopped"",""stopped"",""stopped"",""stopped"",""stopped"",""stopped"",""stopped"",""stopped"",""stopped"",""stopped"",""stopped"",""stopped"",""stopped"",""stopped"",""stopped"",""stopped"",""stopped"",""stopped"",""stopped"",""stopped"",""right"",""right"",""right"",""right"",""right"",""right"",""right"",""right"",""right"",""right"",""right"",""right"",""right"",""right"",""right"",""right"",""right"",""right"",""right"",""right"",""right""]","[0,0,0,0,0,0,0,0,0,0,0,0,0,0,0,0,0,0,0,0,0,0,0,0,0,0,0,0,0,0,0,0,0,0,0,0,0,0,0,0,0,0,0,0,0,0,0,0,1,1,1,1,1,1,1,1,1,1,1,1,1,1,1,1,1,1,1,1,1,0,0,0,0,0,0,0,0,0,0,0,0,0,0,0,0,0,0,0,0,0,0,0,0,0,0,0,0,0,0,0,1,1,1,1,1,1,1,1,1,1,1,1,1,1,1,1,1,1,1,1,1]",311,73.5,26.5,1700,1,0,1,0,1,0,48,0,48,0,1,47,,,,,,,,,,,,,,,,,,,,,,,,,,,,,,
,,,,,,,,,,,,,,,,,,,,,5ec3241b63dd40000cba7af3,23,Female,2020-07-28_13h21.32.467,ProlificManual,3.2.2,Win32,60,5ec3241b63dd40000cba7af3,5f1f20d4c389060d55cb9bc4,5f20183615a22828cb609c01,,200,-100,0,82,3.5,1,"[""stopped"",""stopped"",""stopped"",""stopped"",""stopped"",""stopped"",""stopped"",""stopped"",""stopped"",""stopped"",""stopped"",""stopped"",""stopped"",""stopped"",""stopped"",""stopped"",""stopped"",""stopped"",""stopped"",""stopped"",""stopped"",""stopped"",""stopped"",""stopped"",""stopped"",""stopped"",""stopped"",""stopped"",""stopped"",""stopped"",""stopped"",""stopped"",""stopped"",""stopped"",""stopped"",""down"",""down"",""down"",""down"",""down"",""down"",""down"",""down"",""down"",""down"",""down"",""down"",""down"",""down"",""down"",""down"",""down"",""down"",""down"",""down"",""down"",""down"",""down"",""down"",""down"",""down"",""down"",""down"",""down"",""down"",""stopped"",""stopped"",""stopped"",""stopped"",""stopped"",""stopped"",""stopped"",""stopped"",""stopped"",""stopped"",""stopped"",""stopped"",""stopped"",""stopped"",""stopped"",""stopped"",""left"",""left"",""left"",""left"",""left"",""left"",""left"",""left"",""left"",""left"",""left"",""left"",""left"",""left"",""left"",""left""]","[0,0,0,0,0,0,0,0,0,0,0,0,0,0,0,0,0,0,0,0,0,0,0,0,0,0,0,0,0,0,0,0,0,0,0,1,1,1,1,1,1,1,1,1,1,1,1,1,1,1,1,1,1,1,1,1,1,1,1,1,1,1,1,1,1,0,0,0,0,0,0,0,0,0,0,0,0,0,0,0,0,1,1,1,1,1,1,1,1,1,1,1,1,1,1,1,1]",212,-56,-5,2399,1,0,1,0,1,0,48,0,48,0,1,47,,,,,,,,,,,,,,,,,,,,,,,,,,,,,,
,,,,,,,,,,,,,,,,,,,,,5ec3241b63dd40000cba7af3,23,Female,2020-07-28_13h21.32.467,ProlificManual,3.2.2,Win32,60,5ec3241b63dd40000cba7af3,5f1f20d4c389060d55cb9bc4,5f20183615a22828cb609c01,,200,100,0,143,3.5,1,"[""stopped"",""stopped"",""stopped"",""stopped"",""stopped"",""stopped"",""stopped"",""stopped"",""stopped"",""stopped"",""stopped"",""stopped"",""stopped"",""stopped"",""stopped"",""stopped"",""stopped"",""stopped"",""stopped"",""stopped"",""stopped"",""stopped"",""stopped"",""stopped"",""stopped"",""stopped"",""stopped"",""stopped"",""stopped"",""stopped"",""stopped"",""stopped"",""stopped"",""stopped"",""stopped"",""stopped"",""stopped"",""stopped"",""stopped"",""stopped"",""stopped"",""stopped"",""stopped"",""stopped"",""stopped"",""stopped"",""stopped"",""stopped"",""down"",""down"",""down"",""down"",""down"",""down"",""down"",""down"",""down"",""down"",""down"",""down"",""down"",""down"",""down"",""down"",""down"",""down"",""down"",""down"",""down"",""down"",""down"",""down"",""down"",""down"",""down"",""down"",""stopped"",""stopped"",""stopped"",""stopped"",""stopped"",""stopped"",""stopped"",""stopped"",""stopped"",""stopped"",""stopped"",""stopped"",""stopped"",""stopped"",""stopped"",""stopped"",""stopped"",""stopped"",""stopped"",""stopped"",""right"",""right"",""right"",""right"",""right"",""right"",""right"",""right"",""right"",""right"",""right"",""right"",""right"",""right"",""right"",""right""]","[0,0,0,0,0,0,0,0,0,0,0,0,0,0,0,0,0,0,0,0,0,0,0,0,0,0,0,0,0,0,0,0,0,0,0,0,0,0,0,0,0,0,0,0,0,0,0,0,1,1,1,1,1,1,1,1,1,1,1,1,1,1,1,1,1,1,1,1,1,1,1,1,1,1,1,1,0,0,0,0,0,0,0,0,0,0,0,0,0,0,0,0,0,0,0,0,1,1,1,1,1,1,1,1,1,1,1,1,1,1,1,1]",321,56,2,2208,1,0,1,0,1,0,48,0,48,0,1,47,,,,,,,,,,,,,,,,,,,,,,,,,,,,,,
,,,,,,,,,,,,,,,,,,,,,5ec3241b63dd40000cba7af3,23,Female,2020-07-28_13h21.32.467,ProlificManual,3.2.2,Win32,60,5ec3241b63dd40000cba7af3,5f1f20d4c389060d55cb9bc4,5f20183615a22828cb609c01,,200,100,0,102,3.5,1,"[""stopped"",""stopped"",""stopped"",""stopped"",""stopped"",""stopped"",""stopped"",""stopped"",""stopped"",""stopped"",""stopped"",""stopped"",""stopped"",""stopped"",""stopped"",""stopped"",""stopped"",""stopped"",""stopped"",""stopped"",""stopped"",""stopped"",""stopped"",""stopped"",""stopped"",""stopped"",""stopped"",""stopped"",""stopped"",""stopped"",""stopped"",""stopped"",""stopped"",""stopped"",""stopped"",""stopped"",""stopped"",""stopped"",""stopped"",""stopped"",""stopped"",""stopped"",""stopped"",""stopped"",""stopped"",""stopped"",""stopped"",""stopped"",""stopped"",""down"",""down"",""down"",""down"",""down"",""down"",""down"",""down"",""down"",""down"",""down"",""down"",""down"",""down"",""down"",""down"",""down"",""down"",""down"",""down"",""down"",""down"",""down"",""down"",""down"",""down"",""down"",""down"",""down"",""down"",""stopped"",""stopped"",""stopped"",""stopped"",""stopped"",""stopped"",""stopped"",""stopped"",""stopped"",""stopped"",""stopped"",""stopped"",""stopped"",""stopped"",""stopped"",""stopped"",""stopped"",""stopped"",""stopped"",""stopped"",""stopped"",""stopped"",""stopped"",""stopped"",""right"",""right"",""right"",""right"",""right"",""right"",""right"",""right"",""right"",""right"",""right"",""right"",""right"",""right"",""right"",""right""]","[0,0,0,0,0,0,0,0,0,0,0,0,0,0,0,0,0,0,0,0,0,0,0,0,0,0,0,0,0,0,0,0,0,0,0,0,0,0,0,0,0,0,0,0,0,0,0,0,0,1,1,1,1,1,1,1,1,1,1,1,1,1,1,1,1,1,1,1,1,1,1,1,1,1,1,1,1,1,1,0,0,0,0,0,0,0,0,0,0,0,0,0,0,0,0,0,0,0,0,0,0,0,0,1,1,1,1,1,1,1,1,1,1,1,1,1,1,1,1]",316,56,-5,1903,1,0,1,0,1,0,48,0,48,0,1,47,,,,,,,,,,,,,,,,,,,,,,,,,,,,,,
,,,,,,,,,,,,,,,,,,,,,5ec3241b63dd40000cba7af3,23,Female,2020-07-28_13h21.32.467,ProlificManual,3.2.2,Win32,60,5ec3241b63dd40000cba7af3,5f1f20d4c389060d55cb9bc4,5f20183615a22828cb609c01,,300,200,0,139,3.5,0,"[""stopped"",""stopped"",""stopped"",""stopped"",""stopped"",""stopped"",""stopped"",""stopped"",""stopped"",""stopped"",""stopped"",""stopped"",""stopped"",""stopped"",""stopped"",""stopped"",""stopped"",""stopped"",""stopped"",""stopped"",""stopped"",""stopped"",""stopped"",""stopped"",""stopped"",""stopped"",""stopped"",""stopped"",""stopped"",""stopped"",""stopped"",""down"",""down"",""down"",""down"",""down"",""down"",""down"",""down"",""down"",""down"",""down"",""down"",""down"",""down"",""down"",""down"",""down"",""down"",""down"",""down"",""down"",""down"",""down"",""down"",""down"",""down"",""down"",""down"",""down"",""down"",""down"",""down"",""down"",""down"",""down"",""down"",""down"",""down"",""down"",""stopped"",""stopped"",""stopped"",""stopped"",""stopped"",""stopped"",""stopped"",""stopped"",""stopped"",""stopped"",""stopped"",""stopped"",""stopped"",""stopped"",""stopped"",""right"",""right"",""right"",""right"",""right"",""right"",""right"",""right"",""right"",""right"",""right"",""right"",""right"",""right"",""right"",""right"",""right"",""right"",""right"",""right"",""right"",""right"",""right"",""right"",""right"",""right"",""right"",""right"",""right"",""right"",""right"",""right"",""right"",""right"",""right"",""right""]","[0,0,0,0,0,0,0,0,0,0,0,0,0,0,0,0,0,0,0,0,0,0,0,0,0,0,0,0,0,0,0,1,1,1,1,1,1,1,1,1,1,1,1,1,1,1,1,1,1,1,1,1,1,1,1,1,1,1,1,1,1,1,1,1,1,1,1,1,1,1,0,0,0,0,0,0,0,0,0,0,0,0,0,0,0,1,1,1,1,1,1,1,1,1,1,1,1,1,1,1,1,1,1,1,1,1,1,1,1,1,1,1,1,1,1,1,1,1,1,1,1]",188,126,-36.5,2350,1,0,1,0,1,0,48,0,48,0,1,47,,,,,,,,,,,,,,,,,,,,,,,,,,,,,,
,,,,,,,,,,,,,,,,,,,,,5ec3241b63dd40000cba7af3,23,Female,2020-07-28_13h21.32.467,ProlificManual,3.2.2,Win32,60,5ec3241b63dd40000cba7af3,5f1f20d4c389060d55cb9bc4,5f20183615a22828cb609c01,,400,-300,0,78,3.5,0,"[""stopped"",""stopped"",""stopped"",""stopped"",""stopped"",""stopped"",""stopped"",""stopped"",""stopped"",""stopped"",""stopped"",""stopped"",""stopped"",""stopped"",""stopped"",""stopped"",""stopped"",""stopped"",""stopped"",""stopped"",""stopped"",""stopped"",""stopped"",""stopped"",""stopped"",""stopped"",""stopped"",""stopped"",""stopped"",""stopped"",""stopped"",""stopped"",""stopped"",""stopped"",""stopped"",""stopped"",""stopped"",""stopped"",""stopped"",""stopped"",""stopped"",""stopped"",""stopped"",""stopped"",""stopped"",""stopped"",""stopped"",""stopped"",""stopped"",""stopped"",""stopped"",""stopped"",""stopped"",""stopped"",""stopped"",""stopped"",""down"",""down"",""down"",""down"",""down"",""down"",""down"",""down"",""down"",""down"",""down"",""down"",""down"",""down"",""down"",""down"",""down"",""down"",""down"",""down"",""down"",""stopped"",""stopped"",""stopped"",""stopped"",""stopped"",""stopped"",""stopped"",""stopped"",""stopped"",""stopped"",""stopped"",""stopped"",""stopped"",""stopped"",""stopped"",""stopped"",""stopped"",""stopped"",""stopped"",""stopped"",""stopped"",""stopped"",""stopped"",""stopped"",""stopped"",""left"",""left"",""left"",""left"",""left"",""left"",""left"",""left"",""left"",""left"",""left"",""left"",""left"",""left"",""left"",""left"",""left"",""left"",""left""]","[0,0,0,0,0,0,0,0,0,0,0,0,0,0,0,0,0,0,0,0,0,0,0,0,0,0,0,0,0,0,0,0,0,0,0,0,0,0,0,0,0,0,0,0,0,0,0,0,0,0,0,0,0,0,0,0,1,1,1,1,1,1,1,1,1,1,1,1,1,1,1,1,1,1,1,1,1,0,0,0,0,0,0,0,0,0,0,0,0,0,0,0,0,0,0,0,0,0,0,0,0,0,1,1,1,1,1,1,1,1,1,1,1,1,1,1,1,1,1,1,1]",339,-66.5,26.5,1619,1,0,1,0,1,0,48,0,48,0,1,47,,,,,,,,,,,,,,,,,,,,,,,,,,,,,,
,,,,,,,,,,,,,,,,,,,,,5ec3241b63dd40000cba7af3,23,Female,2020-07-28_13h21.32.467,ProlificManual,3.2.2,Win32,60,5ec3241b63dd40000cba7af3,5f1f20d4c389060d55cb9bc4,5f20183615a22828cb609c01,,500,400,0,142,3.5,0,"[""stopped"",""stopped"",""stopped"",""stopped"",""stopped"",""stopped"",""stopped"",""stopped"",""stopped"",""stopped"",""stopped"",""down"",""down"",""down"",""down"",""down"",""down"",""down"",""down"",""down"",""down"",""down"",""down"",""down"",""down"",""down"",""down"",""down"",""down"",""down"",""down"",""down"",""down"",""down"",""down"",""stopped"",""stopped"",""stopped"",""stopped"",""stopped"",""stopped"",""stopped"",""stopped"",""stopped"",""stopped"",""stopped"",""stopped"",""stopped"",""stopped"",""stopped"",""stopped"",""stopped"",""stopped"",""stopped"",""stopped"",""stopped"",""stopped"",""right"",""right"",""right"",""right"",""right"",""right"",""right"",""right"",""right"",""right"",""right"",""right"",""right"",""right"",""right"",""right"",""right"",""right"",""right"",""right"",""right"",""right"",""right"",""right"",""right"",""right"",""right"",""right"",""right"",""right"",""right"",""right"",""right"",""right"",""right"",""right"",""right"",""right"",""right"",""right"",""right"",""right"",""right"",""right"",""right"",""right"",""right"",""right"",""right"",""right"",""right"",""right"",""right"",""right"",""right"",""right"",""right"",""right"",""right"",""right"",""right"",""right"",""right"",""right""]","[0,0,0,0,0,0,0,0,0,0,0,1,1,1,1,1,1,1,1,1,1,1,1,1,1,1,1,1,1,1,1,1,1,1,1,0,0,0,0,0,0,0,0,0,0,0,0,0,0,0,0,0,0,0,0,0,0,1,1,1,1,1,1,1,1,1,1,1,1,1,1,1,1,1,1,1,1,1,1,1,1,1,1,1,1,1,1,1,1,1,1,1,1,1,1,1,1,1,1,1,1,1,1,1,1,1,1,1,1,1,1,1,1,1,1,1,1,1,1,1,1]",67,224,16,2069,1,0,1,0,1,0,48,0,48,0,1,47,,,,,,,,,,,,,,,,,,,,,,,,,,,,,,
,,,,,,,,,,,,,,,,,,,,,5ec3241b63dd40000cba7af3,23,Female,2020-07-28_13h21.32.467,ProlificManual,3.2.2,Win32,60,5ec3241b63dd40000cba7af3,5f1f20d4c389060d55cb9bc4,5f20183615a22828cb609c01,,500,400,0,134,3.5,0,"[""stopped"",""stopped"",""stopped"",""stopped"",""stopped"",""stopped"",""stopped"",""stopped"",""stopped"",""stopped"",""stopped"",""stopped"",""stopped"",""stopped"",""stopped"",""stopped"",""stopped"",""stopped"",""stopped"",""stopped"",""stopped"",""stopped"",""stopped"",""stopped"",""stopped"",""stopped"",""stopped"",""stopped"",""stopped"",""stopped"",""stopped"",""stopped"",""stopped"",""stopped"",""stopped"",""stopped"",""stopped"",""down"",""down"",""down"",""down"",""down"",""down"",""down"",""down"",""down"",""down"",""down"",""down"",""down"",""down"",""down"",""down"",""down"",""down"",""down"",""down"",""down"",""down"",""down"",""down"",""down"",""down"",""down"",""down"",""down"",""stopped"",""stopped"",""stopped"",""stopped"",""stopped"",""stopped"",""stopped"",""stopped"",""stopped"",""stopped"",""stopped"",""stopped"",""stopped"",""stopped"",""stopped"",""stopped"",""stopped"",""stopped"",""stopped"",""stopped"",""stopped"",""stopped"",""stopped"",""stopped"",""stopped"",""stopped"",""stopped"",""stopped"",""stopped"",""stopped"",""stopped"",""right"",""right"",""right"",""right"",""right"",""right"",""right"",""right"",""right"",""right"",""right"",""right"",""right"",""right"",""right"",""right"",""right"",""right"",""right"",""right"",""right"",""right"",""right"",""right""]","[0,0,0,0,0,0,0,0,0,0,0,0,0,0,0,0,0,0,0,0,0,0,0,0,0,0,0,0,0,0,0,0,0,0,0,0,0,1,1,1,1,1,1,1,1,1,1,1,1,1,1,1,1,1,1,1,1,1,1,1,1,1,1,1,1,1,0,0,0,0,0,0,0,0,0,0,0,0,0,0,0,0,0,0,0,0,0,0,0,0,0,0,0,0,0,0,0,1,1,1,1,1,1,1,1,1,1,1,1,1,1,1,1,1,1,1,1,1,1,1,1]",247,84,-1.5,2089,1,0,1,0,1,0,48,0,48,0,1,47,,,,,,,,,,,,,,,,,,,,,,,,,,,,,,
,,,,,,,,,,,,,,,,,,,,,5ec3241b63dd40000cba7af3,23,Female,2020-07-28_13h21.32.467,ProlificManual,3.2.2,Win32,60,5ec3241b63dd40000cba7af3,5f1f20d4c389060d55cb9bc4,5f20183615a22828cb609c01,,300,-200,0,114,3.5,0,"[""stopped"",""stopped"",""stopped"",""stopped"",""stopped"",""stopped"",""stopped"",""stopped"",""stopped"",""stopped"",""stopped"",""stopped"",""stopped"",""stopped"",""stopped"",""stopped"",""stopped"",""stopped"",""stopped"",""stopped"",""stopped"",""stopped"",""stopped"",""stopped"",""stopped"",""stopped"",""stopped"",""stopped"",""stopped"",""stopped"",""stopped"",""down"",""down"",""down"",""down"",""down"",""down"",""down"",""down"",""down"",""down"",""down"",""down"",""down"",""down"",""down"",""down"",""down"",""down"",""down"",""down"",""down"",""down"",""down"",""down"",""down"",""down"",""down"",""down"",""down"",""down"",""stopped"",""stopped"",""stopped"",""stopped"",""stopped"",""stopped"",""stopped"",""stopped"",""stopped"",""stopped"",""stopped"",""stopped"",""stopped"",""stopped"",""stopped"",""stopped"",""stopped"",""stopped"",""stopped"",""stopped"",""stopped"",""stopped"",""stopped"",""stopped"",""stopped"",""stopped"",""stopped"",""stopped"",""stopped"",""stopped"",""stopped"",""stopped"",""stopped"",""stopped"",""stopped"",""stopped"",""stopped"",""stopped"",""stopped"",""stopped"",""stopped"",""stopped"",""stopped"",""stopped"",""stopped"",""stopped"",""stopped"",""stopped"",""stopped"",""stopped"",""stopped"",""stopped"",""stopped"",""stopped"",""stopped"",""stopped"",""stopped"",""stopped"",""stopped"",""stopped""]","[0,0,0,0,0,0,0,0,0,0,0,0,0,0,0,0,0,0,0,0,0,0,0,0,0,0,0,0,0,0,0,1,1,1,1,1,1,1,1,1,1,1,1,1,1,1,1,1,1,1,1,1,1,1,1,1,1,1,1,1,1,0,0,0,0,0,0,0,0,0,0,0,0,0,0,0,0,0,0,0,0,0,0,0,0,0,0,0,0,0,0,0,0,0,0,0,0,0,0,0,0,0,0,0,0,0,0,0,0,0,0,0,0,0,0,0,0,0,0,0,0]",187,0,-5,2249,1,0,1,0,1,0,48,0,48,0,1,47,,,,,,,,,,,,,,,,,,,,,,,,,,,,,,
,,,,,,,,,,,,,,,,,,,,,5ec3241b63dd40000cba7af3,23,Female,2020-07-28_13h21.32.467,ProlificManual,3.2.2,Win32,60,5ec3241b63dd40000cba7af3,5f1f20d4c389060d55cb9bc4,5f20183615a22828cb609c01,,200,100,0,113,3.5,1,"[""stopped"",""stopped"",""stopped"",""stopped"",""stopped"",""stopped"",""stopped"",""stopped"",""stopped"",""stopped"",""stopped"",""stopped"",""stopped"",""stopped"",""stopped"",""stopped"",""stopped"",""stopped"",""stopped"",""stopped"",""stopped"",""stopped"",""stopped"",""stopped"",""stopped"",""stopped"",""stopped"",""stopped"",""stopped"",""stopped"",""stopped"",""stopped"",""stopped"",""stopped"",""stopped"",""stopped"",""stopped"",""stopped"",""stopped"",""stopped"",""stopped"",""down"",""down"",""down"",""down"",""down"",""down"",""down"",""down"",""down"",""down"",""down"",""down"",""down"",""down"",""down"",""down"",""down"",""down"",""down"",""down"",""down"",""down"",""down"",""down"",""down"",""down"",""down"",""stopped"",""stopped"",""stopped"",""stopped"",""stopped"",""stopped"",""stopped"",""stopped"",""stopped"",""stopped"",""stopped"",""stopped"",""stopped"",""stopped"",""stopped"",""stopped"",""stopped"",""stopped"",""right"",""right"",""right"",""right"",""right"",""right"",""right"",""right"",""right"",""right"",""right"",""right"",""right"",""right"",""right"",""right""]","[0,0,0,0,0,0,0,0,0,0,0,0,0,0,0,0,0,0,0,0,0,0,0,0,0,0,0,0,0,0,0,0,0,0,0,0,0,0,0,0,0,1,1,1,1,1,1,1,1,1,1,1,1,1,1,1,1,1,1,1,1,1,1,1,1,1,1,1,0,0,0,0,0,0,0,0,0,0,0,0,0,0,0,0,0,0,1,1,1,1,1,1,1,1,1,1,1,1,1,1,1,1]",248,56,5.5,1717,1,0,1,0,1,0,48,0,48,0,1,47,,,,,,,,,,,,,,,,,,,,,,,,,,,,,,
,,,,,,,,,,,,,,,,,,,,,5ec3241b63dd40000cba7af3,23,Female,2020-07-28_13h21.32.467,ProlificManual,3.2.2,Win32,60,5ec3241b63dd40000cba7af3,5f1f20d4c389060d55cb9bc4,5f20183615a22828cb609c01,,500,-400,0,103,3.5,0,"[""stopped"",""stopped"",""stopped"",""stopped"",""stopped"",""stopped"",""stopped"",""stopped"",""stopped"",""stopped"",""stopped"",""stopped"",""stopped"",""stopped"",""stopped"",""stopped"",""stopped"",""stopped"",""stopped"",""stopped"",""stopped"",""stopped"",""stopped"",""stopped"",""stopped"",""stopped"",""stopped"",""stopped"",""stopped"",""stopped"",""stopped"",""stopped"",""stopped"",""stopped"",""stopped"",""stopped"",""stopped"",""stopped"",""stopped"",""stopped"",""stopped"",""stopped"",""stopped"",""stopped"",""stopped"",""down"",""down"",""down"",""down"",""down"",""down"",""down"",""down"",""down"",""down"",""down"",""down"",""down"",""down"",""down"",""down"",""down"",""down"",""down"",""down"",""down"",""stopped"",""stopped"",""stopped"",""stopped"",""stopped"",""stopped"",""stopped"",""stopped"",""stopped"",""stopped"",""stopped"",""stopped"",""stopped"",""stopped"",""stopped"",""stopped"",""stopped"",""stopped"",""stopped"",""stopped"",""stopped"",""stopped"",""left"",""left"",""left"",""left"",""left"",""left"",""left"",""left"",""left"",""left"",""left"",""left"",""left"",""left"",""left"",""left"",""left"",""left"",""left"",""left"",""left"",""left"",""left"",""left"",""left"",""left"",""left"",""left"",""left"",""left"",""left"",""left"",""left""]","[0,0,0,0,0,0,0,0,0,0,0,0,0,0,0,0,0,0,0,0,0,0,0,0,0,0,0,0,0,0,0,0,0,0,0,0,0,0,0,0,0,0,0,0,0,1,1,1,1,1,1,1,1,1,1,1,1,1,1,1,1,1,1,1,1,1,0,0,0,0,0,0,0,0,0,0,0,0,0,0,0,0,0,0,0,0,0,0,1,1,1,1,1,1,1,1,1,1,1,1,1,1,1,1,1,1,1,1,1,1,1,1,1,1,1,1,1,1,1,1,1]",304,-115.5,26.5,1797,1,0,1,0,1,0,48,0,48,0,1,47,,,,,,,,,,,,,,,,,,,,,,,,,,,,,,
,,,,,,,,,,,,,,,,,,,,,5ec3241b63dd40000cba7af3,23,Female,2020-07-28_13h21.32.467,ProlificManual,3.2.2,Win32,60,5ec3241b63dd40000cba7af3,5f1f20d4c389060d55cb9bc4,5f20183615a22828cb609c01,,500,400,0,73,3.5,0,"[""stopped"",""stopped"",""stopped"",""stopped"",""stopped"",""stopped"",""stopped"",""stopped"",""stopped"",""stopped"",""stopped"",""stopped"",""stopped"",""stopped"",""stopped"",""stopped"",""stopped"",""stopped"",""stopped"",""stopped"",""stopped"",""stopped"",""stopped"",""stopped"",""stopped"",""stopped"",""stopped"",""stopped"",""stopped"",""stopped"",""stopped"",""stopped"",""stopped"",""stopped"",""stopped"",""stopped"",""stopped"",""stopped"",""stopped"",""stopped"",""stopped"",""stopped"",""stopped"",""stopped"",""stopped"",""stopped"",""stopped"",""stopped"",""stopped"",""stopped"",""stopped"",""stopped"",""stopped"",""stopped"",""stopped"",""down"",""down"",""down"",""down"",""down"",""down"",""down"",""down"",""down"",""down"",""down"",""down"",""down"",""down"",""down"",""down"",""down"",""down"",""down"",""down"",""down"",""down"",""down"",""down"",""down"",""down"",""down"",""stopped"",""stopped"",""stopped"",""stopped"",""stopped"",""stopped"",""stopped"",""stopped"",""stopped"",""stopped"",""stopped"",""stopped"",""stopped"",""stopped"",""stopped"",""stopped"",""stopped"",""stopped"",""stopped"",""right"",""right"",""right"",""right"",""right"",""right"",""right"",""right"",""right"",""right"",""right"",""right"",""right"",""right"",""right"",""right"",""right"",""right"",""right"",""right""]","[0,0,0,0,0,0,0,0,0,0,0,0,0,0,0,0,0,0,0,0,0,0,0,0,0,0,0,0,0,0,0,0,0,0,0,0,0,0,0,0,0,0,0,0,0,0,0,0,0,0,0,0,0,0,0,1,1,1,1,1,1,1,1,1,1,1,1,1,1,1,1,1,1,1,1,1,1,1,1,1,1,1,0,0,0,0,0,0,0,0,0,0,0,0,0,0,0,0,0,0,0,1,1,1,1,1,1,1,1,1,1,1,1,1,1,1,1,1,1,1,1]",333,70,5.5,1613,1,0,1,0,1,0,48,0,48,0,1,47,,,,,,,,,,,,,,,,,,,,,,,,,,,,,,
,,,,,,,,,,,,,,,,,,,,,5ec3241b63dd40000cba7af3,23,Female,2020-07-28_13h21.32.467,ProlificManual,3.2.2,Win32,60,5ec3241b63dd40000cba7af3,5f1f20d4c389060d55cb9bc4,5f20183615a22828cb609c01,,200,-100,0,120,3.5,1,"[""stopped"",""stopped"",""stopped"",""stopped"",""stopped"",""stopped"",""stopped"",""stopped"",""stopped"",""stopped"",""stopped"",""stopped"",""stopped"",""stopped"",""stopped"",""stopped"",""stopped"",""stopped"",""stopped"",""stopped"",""stopped"",""stopped"",""stopped"",""stopped"",""stopped"",""stopped"",""stopped"",""stopped"",""stopped"",""stopped"",""stopped"",""stopped"",""stopped"",""stopped"",""stopped"",""stopped"",""stopped"",""stopped"",""stopped"",""stopped"",""down"",""down"",""down"",""down"",""down"",""down"",""down"",""down"",""down"",""down"",""down"",""down"",""down"",""down"",""down"",""down"",""down"",""down"",""down"",""down"",""down"",""down"",""down"",""down"",""down"",""stopped"",""stopped"",""stopped"",""stopped"",""stopped"",""stopped"",""stopped"",""stopped"",""stopped"",""stopped"",""stopped"",""stopped"",""stopped"",""stopped"",""stopped"",""stopped"",""stopped"",""stopped"",""stopped"",""stopped"",""stopped"",""stopped"",""stopped"",""stopped"",""stopped"",""stopped"",""stopped"",""left"",""left"",""left"",""left"",""left"",""left"",""left"",""left"",""left"",""left"",""left"",""left"",""left"",""left"",""left"",""left"",""left""]","[0,0,0,0,0,0,0,0,0,0,0,0,0,0,0,0,0,0,0,0,0,0,0,0,0,0,0,0,0,0,0,0,0,0,0,0,0,0,0,0,1,1,1,1,1,1,1,1,1,1,1,1,1,1,1,1,1,1,1,1,1,1,1,1,1,0,0,0,0,0,0,0,0,0,0,0,0,0,0,0,0,0,0,0,0,0,0,0,0,0,0,0,1,1,1,1,1,1,1,1,1,1,1,1,1,1,1,1,1]",242,-59.5,12.5,2055,1,0,1,0,1,0,48,0,48,0,1,47,,,,,,,,,,,,,,,,,,,,,,,,,,,,,,
,,,,,,,,,,,,,,,,,,,,,5ec3241b63dd40000cba7af3,23,Female,2020-07-28_13h21.32.467,ProlificManual,3.2.2,Win32,60,5ec3241b63dd40000cba7af3,5f1f20d4c389060d55cb9bc4,5f20183615a22828cb609c01,,300,200,0,143,3.5,1,"[""stopped"",""stopped"",""stopped"",""stopped"",""stopped"",""stopped"",""stopped"",""down"",""down"",""down"",""down"",""down"",""down"",""down"",""down"",""down"",""down"",""down"",""down"",""down"",""down"",""down"",""down"",""down"",""down"",""down"",""down"",""down"",""down"",""down"",""down"",""down"",""down"",""down"",""down"",""down"",""down"",""stopped"",""stopped"",""stopped"",""stopped"",""stopped"",""stopped"",""stopped"",""stopped"",""stopped"",""stopped"",""stopped"",""stopped"",""stopped"",""stopped"",""stopped"",""stopped"",""stopped"",""stopped"",""stopped"",""stopped"",""right"",""right"",""right"",""right"",""right"",""right"",""right"",""right"",""right"",""right"",""right"",""right"",""right"",""right"",""right"",""right"",""right"",""right"",""right"",""right"",""right"",""right"",""right"",""right"",""right"",""right"",""right"",""right"",""right"",""right"",""right"",""right"",""right"",""right"",""right"",""right"",""right"",""right"",""right"",""right"",""right"",""right"",""right"",""right"",""right""]","[0,0,0,0,0,0,0,1,1,1,1,1,1,1,1,1,1,1,1,1,1,1,1,1,1,1,1,1,1,1,1,1,1,1,1,1,1,0,0,0,0,0,0,0,0,0,0,0,0,0,0,0,0,0,0,0,0,1,1,1,1,1,1,1,1,1,1,1,1,1,1,1,1,1,1,1,1,1,1,1,1,1,1,1,1,1,1,1,1,1,1,1,1,1,1,1,1,1,1,1,1,1]",41,157.5,-5,1989,1,0,1,0,1,0,48,0,48,0,1,47,,,,,,,,,,,,,,,,,,,,,,,,,,,,,,
,,,,,,,,,,,,,,,,,,,,,5ec3241b63dd40000cba7af3,23,Female,2020-07-28_13h21.32.467,ProlificManual,3.2.2,Win32,60,5ec3241b63dd40000cba7af3,5f1f20d4c389060d55cb9bc4,5f20183615a22828cb609c01,,300,-200,0,122,3.5,0,"[""stopped"",""stopped"",""stopped"",""stopped"",""stopped"",""stopped"",""stopped"",""stopped"",""stopped"",""stopped"",""stopped"",""stopped"",""stopped"",""stopped"",""stopped"",""stopped"",""stopped"",""stopped"",""stopped"",""stopped"",""stopped"",""stopped"",""stopped"",""stopped"",""stopped"",""stopped"",""stopped"",""stopped"",""stopped"",""stopped"",""down"",""down"",""down"",""down"",""down"",""down"",""down"",""down"",""down"",""down"",""down"",""down"",""down"",""down"",""down"",""down"",""down"",""down"",""down"",""down"",""down"",""down"",""down"",""down"",""down"",""down"",""down"",""down"",""down"",""down"",""stopped"",""stopped"",""stopped"",""stopped"",""stopped"",""stopped"",""stopped"",""stopped"",""stopped"",""stopped"",""stopped"",""stopped"",""stopped"",""stopped"",""stopped"",""stopped"",""stopped"",""stopped"",""stopped"",""stopped"",""stopped"",""stopped"",""stopped"",""stopped"",""stopped"",""stopped"",""stopped"",""stopped"",""stopped"",""stopped"",""stopped"",""stopped"",""stopped"",""stopped"",""stopped"",""stopped"",""stopped"",""stopped"",""stopped"",""stopped"",""stopped"",""stopped"",""stopped"",""stopped"",""stopped"",""stopped"",""stopped"",""stopped"",""stopped"",""stopped"",""stopped"",""stopped"",""stopped"",""stopped"",""stopped"",""stopped"",""stopped"",""stopped"",""stopped"",""stopped"",""stopped""]","[0,0,0,0,0,0,0,0,0,0,0,0,0,0,0,0,0,0,0,0,0,0,0,0,0,0,0,0,0,0,1,1,1,1,1,1,1,1,1,1,1,1,1,1,1,1,1,1,1,1,1,1,1,1,1,1,1,1,1,1,0,0,0,0,0,0,0,0,0,0,0,0,0,0,0,0,0,0,0,0,0,0,0,0,0,0,0,0,0,0,0,0,0,0,0,0,0,0,0,0,0,0,0,0,0,0,0,0,0,0,0,0,0,0,0,0,0,0,0,0,0]",194,0,-5,2128,1,0,1,0,1,0,48,0,48,0,1,47,,,,,,,,,,,,,,,,,,,,,,,,,,,,,,
,,,,,,,,,,,,,,,,,,,,,5ec3241b63dd40000cba7af3,23,Female,2020-07-28_13h21.32.467,ProlificManual,3.2.2,Win32,60,5ec3241b63dd40000cba7af3,5f1f20d4c389060d55cb9bc4,5f20183615a22828cb609c01,,300,-200,0,116,3.5,1,"[""stopped"",""stopped"",""stopped"",""stopped"",""stopped"",""stopped"",""stopped"",""stopped"",""stopped"",""stopped"",""stopped"",""stopped"",""stopped"",""stopped"",""stopped"",""stopped"",""stopped"",""stopped"",""stopped"",""stopped"",""stopped"",""stopped"",""stopped"",""stopped"",""stopped"",""stopped"",""stopped"",""down"",""down"",""down"",""down"",""down"",""down"",""down"",""down"",""down"",""down"",""down"",""down"",""down"",""down"",""down"",""down"",""down"",""down"",""down"",""down"",""down"",""down"",""down"",""down"",""stopped"",""stopped"",""stopped"",""stopped"",""stopped"",""stopped"",""stopped"",""stopped"",""stopped"",""stopped"",""stopped"",""stopped"",""stopped"",""stopped"",""stopped"",""stopped"",""stopped"",""left"",""left"",""left"",""left"",""left"",""left"",""left"",""left"",""left"",""left"",""left"",""left"",""left"",""left"",""left"",""left"",""left"",""left"",""left"",""left"",""left"",""left"",""left"",""left"",""left"",""left"",""left"",""left"",""left"",""left"",""left"",""left"",""left"",""left"",""left"",""left"",""left"",""left"",""left"",""left"",""left"",""left"",""left"",""left"",""left"",""left""]","[0,0,0,0,0,0,0,0,0,0,0,0,0,0,0,0,0,0,0,0,0,0,0,0,0,0,0,1,1,1,1,1,1,1,1,1,1,1,1,1,1,1,1,1,1,1,1,1,1,1,1,0,0,0,0,0,0,0,0,0,0,0,0,0,0,0,0,0,1,1,1,1,1,1,1,1,1,1,1,1,1,1,1,1,1,1,1,1,1,1,1,1,1,1,1,1,1,1,1,1,1,1,1,1,1,1,1,1,1,1,1,1,1,1]",183,-161,16,1973,1,0,1,0,1,0,48,0,48,0,1,47,,,,,,,,,,,,,,,,,,,,,,,,,,,,,,
,,,,,,,,,,,,,,,,,,,,,5ec3241b63dd40000cba7af3,23,Female,2020-07-28_13h21.32.467,ProlificManual,3.2.2,Win32,60,5ec3241b63dd40000cba7af3,5f1f20d4c389060d55cb9bc4,5f20183615a22828cb609c01,,400,300,0,63,3.5,0,"[""stopped"",""stopped"",""stopped"",""stopped"",""stopped"",""stopped"",""stopped"",""stopped"",""stopped"",""stopped"",""stopped"",""stopped"",""stopped"",""stopped"",""stopped"",""stopped"",""stopped"",""stopped"",""stopped"",""stopped"",""stopped"",""stopped"",""stopped"",""stopped"",""stopped"",""stopped"",""stopped"",""stopped"",""stopped"",""stopped"",""stopped"",""stopped"",""stopped"",""stopped"",""stopped"",""stopped"",""stopped"",""stopped"",""stopped"",""stopped"",""stopped"",""stopped"",""stopped"",""stopped"",""stopped"",""stopped"",""stopped"",""stopped"",""stopped"",""stopped"",""stopped"",""stopped"",""stopped"",""stopped"",""stopped"",""stopped"",""stopped"",""stopped"",""stopped"",""stopped"",""stopped"",""stopped"",""stopped"",""stopped"",""stopped"",""stopped"",""stopped"",""stopped"",""stopped"",""stopped"",""stopped"",""stopped"",""stopped"",""stopped"",""stopped"",""stopped"",""stopped"",""stopped"",""stopped"",""stopped"",""stopped"",""stopped"",""stopped"",""stopped"",""stopped"",""stopped"",""stopped"",""stopped"",""stopped"",""stopped"",""down"",""down"",""down"",""down"",""down"",""down"",""down"",""down"",""down"",""down"",""down"",""down"",""down"",""down"",""down"",""down"",""down"",""down"",""down"",""down"",""down"",""down"",""down"",""down"",""down"",""down"",""stopped"",""stopped"",""stopped"",""stopped"",""stopped""]","[0,0,0,0,0,0,0,0,0,0,0,0,0,0,0,0,0,0,0,0,0,0,0,0,0,0,0,0,0,0,0,0,0,0,0,0,0,0,0,0,0,0,0,0,0,0,0,0,0,0,0,0,0,0,0,0,0,0,0,0,0,0,0,0,0,0,0,0,0,0,0,0,0,0,0,0,0,0,0,0,0,0,0,0,0,0,0,0,0,0,1,1,1,1,1,1,1,1,1,1,1,1,1,1,1,1,1,1,1,1,1,1,1,1,1,1,0,0,0,0,0]",546,0,9,1975,1,0,1,0,1,0,48,0,48,0,1,47,,,,,,,,,,,,,,,,,,,,,,,,,,,,,,
,,,,,,,,,,,,,,,,,,,,,5ec3241b63dd40000cba7af3,23,Female,2020-07-28_13h21.32.467,ProlificManual,3.2.2,Win32,60,5ec3241b63dd40000cba7af3,5f1f20d4c389060d55cb9bc4,5f20183615a22828cb609c01,,400,300,0,127,3.5,0,"[""stopped"",""stopped"",""stopped"",""stopped"",""stopped"",""stopped"",""stopped"",""stopped"",""stopped"",""stopped"",""stopped"",""stopped"",""stopped"",""stopped"",""stopped"",""stopped"",""stopped"",""stopped"",""stopped"",""stopped"",""down"",""down"",""down"",""down"",""down"",""down"",""down"",""down"",""down"",""down"",""down"",""down"",""down"",""down"",""down"",""down"",""down"",""down"",""down"",""down"",""down"",""down"",""down"",""down"",""down"",""down"",""down"",""down"",""stopped"",""stopped"",""stopped"",""stopped"",""stopped"",""stopped"",""stopped"",""stopped"",""stopped"",""stopped"",""stopped"",""stopped"",""stopped"",""stopped"",""stopped"",""right"",""right"",""right"",""right"",""right"",""right"",""right"",""right"",""right"",""right"",""right"",""right"",""right"",""right"",""right"",""right"",""right"",""right"",""right"",""right"",""right"",""right"",""right"",""right"",""right"",""right"",""right"",""right"",""right"",""right"",""right"",""right"",""right"",""right"",""right"",""right"",""right"",""right"",""right"",""right"",""right"",""right"",""right"",""right"",""right"",""right"",""right"",""right"",""right"",""right"",""right"",""right"",""right"",""right"",""right"",""right"",""right"",""right""]","[0,0,0,0,0,0,0,0,0,0,0,0,0,0,0,0,0,0,0,0,1,1,1,1,1,1,1,1,1,1,1,1,1,1,1,1,1,1,1,1,1,1,1,1,1,1,1,1,0,0,0,0,0,0,0,0,0,0,0,0,0,0,0,1,1,1,1,1,1,1,1,1,1,1,1,1,1,1,1,1,1,1,1,1,1,1,1,1,1,1,1,1,1,1,1,1,1,1,1,1,1,1,1,1,1,1,1,1,1,1,1,1,1,1,1,1,1,1,1,1,1]",121,203,2,2431,1,0,1,0,1,0,48,0,48,0,1,47,,,,,,,,,,,,,,,,,,,,,,,,,,,,,,
,,,,,,,,,,,,,,,,,,,,,5ec3241b63dd40000cba7af3,23,Female,2020-07-28_13h21.32.467,ProlificManual,3.2.2,Win32,60,5ec3241b63dd40000cba7af3,5f1f20d4c389060d55cb9bc4,5f20183615a22828cb609c01,,200,100,0,115,3.5,1,"[""stopped"",""stopped"",""stopped"",""stopped"",""stopped"",""stopped"",""stopped"",""stopped"",""stopped"",""stopped"",""stopped"",""stopped"",""stopped"",""stopped"",""stopped"",""stopped"",""stopped"",""stopped"",""stopped"",""stopped"",""stopped"",""stopped"",""stopped"",""stopped"",""stopped"",""stopped"",""stopped"",""stopped"",""stopped"",""stopped"",""stopped"",""stopped"",""stopped"",""stopped"",""stopped"",""stopped"",""stopped"",""down"",""down"",""down"",""down"",""down"",""down"",""down"",""down"",""down"",""down"",""down"",""down"",""down"",""down"",""down"",""down"",""down"",""down"",""down"",""down"",""down"",""down"",""down"",""down"",""down"",""down"",""down"",""down"",""down"",""stopped"",""stopped"",""stopped"",""stopped"",""stopped"",""stopped"",""stopped"",""stopped"",""stopped"",""stopped"",""stopped"",""stopped"",""stopped"",""stopped"",""stopped"",""stopped"",""stopped"",""stopped"",""stopped"",""stopped"",""stopped"",""right"",""right"",""right"",""right"",""right"",""right"",""right"",""right"",""right"",""right"",""right"",""right"",""right"",""right"",""right"",""right""]","[0,0,0,0,0,0,0,0,0,0,0,0,0,0,0,0,0,0,0,0,0,0,0,0,0,0,0,0,0,0,0,0,0,0,0,0,0,1,1,1,1,1,1,1,1,1,1,1,1,1,1,1,1,1,1,1,1,1,1,1,1,1,1,1,1,1,0,0,0,0,0,0,0,0,0,0,0,0,0,0,0,0,0,0,0,0,0,1,1,1,1,1,1,1,1,1,1,1,1,1,1,1,1]",224,56,-1.5,1838,1,0,1,0,1,0,48,0,48,0,1,47,,,,,,,,,,,,,,,,,,,,,,,,,,,,,,
,,,,,,,,,,,,,,,,,,,,,5ec3241b63dd40000cba7af3,23,Female,2020-07-28_13h21.32.467,ProlificManual,3.2.2,Win32,60,5ec3241b63dd40000cba7af3,5f1f20d4c389060d55cb9bc4,5f20183615a22828cb609c01,,500,-400,0,141,3.5,0,"[""stopped"",""stopped"",""stopped"",""stopped"",""stopped"",""stopped"",""stopped"",""stopped"",""stopped"",""stopped"",""stopped"",""stopped"",""stopped"",""stopped"",""stopped"",""stopped"",""stopped"",""stopped"",""stopped"",""stopped"",""stopped"",""stopped"",""stopped"",""stopped"",""stopped"",""stopped"",""stopped"",""stopped"",""stopped"",""stopped"",""stopped"",""stopped"",""stopped"",""stopped"",""stopped"",""stopped"",""stopped"",""stopped"",""stopped"",""stopped"",""stopped"",""stopped"",""stopped"",""stopped"",""down"",""down"",""down"",""down"",""down"",""down"",""down"",""down"",""down"",""down"",""down"",""down"",""down"",""down"",""down"",""down"",""down"",""down"",""down"",""down"",""down"",""down"",""down"",""down"",""down"",""down"",""down"",""down"",""down"",""down"",""stopped"",""stopped"",""stopped"",""stopped"",""stopped"",""stopped"",""stopped"",""stopped"",""stopped"",""stopped"",""stopped"",""stopped"",""stopped"",""stopped"",""stopped"",""stopped"",""stopped"",""left"",""left"",""left"",""left"",""left"",""left"",""left"",""left"",""left"",""left"",""left"",""left"",""left"",""left"",""left"",""left"",""left"",""left"",""left"",""left"",""left"",""left"",""left"",""left"",""left"",""left"",""left"",""left"",""left"",""left""]","[0,0,0,0,0,0,0,0,0,0,0,0,0,0,0,0,0,0,0,0,0,0,0,0,0,0,0,0,0,0,0,0,0,0,0,0,0,0,0,0,0,0,0,0,1,1,1,1,1,1,1,1,1,1,1,1,1,1,1,1,1,1,1,1,1,1,1,1,1,1,1,1,1,1,0,0,0,0,0,0,0,0,0,0,0,0,0,0,0,0,0,1,1,1,1,1,1,1,1,1,1,1,1,1,1,1,1,1,1,1,1,1,1,1,1,1,1,1,1,1,1]",267,-105,-5,3386,1,0,1,0,1,0,48,0,48,0,1,47,,,,,,,,,,,,,,,,,,,,,,,,,,,,,,
,,,,,,,,,,,,,,,,,,,,,5ec3241b63dd40000cba7af3,23,Female,2020-07-28_13h21.32.467,ProlificManual,3.2.2,Win32,60,5ec3241b63dd40000cba7af3,5f1f20d4c389060d55cb9bc4,5f20183615a22828cb609c01,,,,,,,,,,,,,7469,1,0,1,0,1,0,,,,,,,300,200,0,const,3.5,116,right,57,-59,"[""stopped"",""stopped"",""stopped"",""stopped"",""stopped"",""stopped"",""stopped"",""stopped"",""stopped"",""stopped"",""stopped"",""stopped"",""stopped"",""stopped"",""stopped"",""stopped"",""stopped"",""stopped"",""stopped"",""stopped"",""stopped"",""stopped"",""stopped"",""stopped"",""stopped"",""stopped"",""stopped"",""stopped"",""stopped"",""stopped"",""stopped"",""stopped"",""stopped"",""stopped"",""stopped"",""stopped"",""stopped"",""stopped"",""stopped"",""stopped"",""stopped"",""stopped"",""stopped"",""stopped"",""stopped"",""stopped"",""stopped"",""stopped"",""stopped"",""stopped"",""stopped"",""stopped"",""stopped"",""stopped"",""stopped"",""stopped"",""stopped"",""stopped"",""stopped"",""stopped"",""stopped"",""stopped"",""stopped"",""stopped"",""stopped"",""stopped"",""stopped"",""stopped"",""stopped"",""stopped"",""stopped"",""stopped"",""stopped"",""stopped"",""stopped"",""stopped"",""stopped"",""stopped"",""stopped"",""stopped"",""stopped"",""down"",""down"",""stopped"",""stopped"",""stopped"",""stopped"",""stopped"",""stopped"",""stopped"",""stopped"",""stopped"",""stopped"",""down"",""down"",""down"",""down"",""down"",""down"",""down"",""down"",""down"",""down"",""down"",""down"",""down"",""down"",""down"",""down"",""down"",""down"",""down"",""down"",""down"",""down"",""down"",""down"",""down"",""down"",""down"",""down""]","[0,0,0,0,0,0,0,0,0,0,0,0,0,0,0,0,0,0,0,0,0,0,0,0,0,0,0,0,0,0,0,0,0,0,0,0,0,0,0,0,0,0,0,0,0,0,0,0,0,0,0,0,0,0,0,0,0,0,0,0,0,0,0,0,0,0,0,0,0,0,0,0,0,0,0,0,0,0,0,0,0,1,1,0,0,0,0,0,0,0,0,0,0,1,1,1,1,1,1,1,1,1,1,1,1,1,1,1,1,1,1,1,1,1,1,1,1,1,1,1,1]",491,57,-5,0,40,0,40,0,1,39,,,,,,,,,
,,,,,,,,,,,,,,,,,,,,,5ec3241b63dd40000cba7af3,23,Female,2020-07-28_13h21.32.467,ProlificManual,3.2.2,Win32,60,5ec3241b63dd40000cba7af3,5f1f20d4c389060d55cb9bc4,5f20183615a22828cb609c01,,,,,,,,,,,,,4778,1,0,1,0,1,0,,,,,,,300,200,0,const,3.5,83,right,47,-12,"[""stopped"",""stopped"",""stopped"",""stopped"",""stopped"",""stopped"",""stopped"",""stopped"",""stopped"",""stopped"",""stopped"",""stopped"",""stopped"",""stopped"",""stopped"",""stopped"",""stopped"",""stopped"",""stopped"",""stopped"",""stopped"",""stopped"",""stopped"",""stopped"",""stopped"",""stopped"",""stopped"",""stopped"",""stopped"",""stopped"",""stopped"",""stopped"",""stopped"",""stopped"",""stopped"",""stopped"",""stopped"",""stopped"",""stopped"",""stopped"",""stopped"",""down"",""down"",""down"",""down"",""down"",""down"",""down"",""down"",""down"",""down"",""down"",""down"",""down"",""down"",""stopped"",""stopped"",""stopped"",""stopped"",""stopped"",""stopped"",""stopped"",""stopped"",""stopped"",""stopped"",""stopped"",""stopped"",""stopped"",""stopped"",""stopped"",""stopped"",""stopped"",""stopped"",""stopped"",""stopped"",""stopped"",""stopped"",""stopped"",""stopped"",""right"",""right"",""right"",""right"",""right"",""right"",""right"",""right"",""right"",""right"",""right"",""right"",""right"",""right"",""right"",""right"",""right"",""right"",""right"",""right"",""right"",""right"",""right"",""right"",""right"",""right"",""right"",""right"",""right"",""right"",""right"",""right"",""right"",""right"",""right"",""right"",""right"",""right"",""right"",""right"",""right"",""right""]","[0,0,0,0,0,0,0,0,0,0,0,0,0,0,0,0,0,0,0,0,0,0,0,0,0,0,0,0,0,0,0,0,0,0,0,0,0,0,0,0,0,1,1,1,1,1,1,1,1,1,1,1,1,1,1,0,0,0,0,0,0,0,0,0,0,0,0,0,0,0,0,0,0,0,0,0,0,0,0,1,1,1,1,1,1,1,1,1,1,1,1,1,1,1,1,1,1,1,1,1,1,1,1,1,1,1,1,1,1,1,1,1,1,1,1,1,1,1,1,1,1]",248,194,51,0,40,0,40,0,1,39,,,,,,,,,
,,,,,,,,,,,,,,,,,,,,,5ec3241b63dd40000cba7af3,23,Female,2020-07-28_13h21.32.467,ProlificManual,3.2.2,Win32,60,5ec3241b63dd40000cba7af3,5f1f20d4c389060d55cb9bc4,5f20183615a22828cb609c01,,,,,,,,,,,,,3996,1,0,1,0,1,0,,,,,,,200,100,0,const,3.5,143,left,-5,1,"[""stopped"",""stopped"",""stopped"",""stopped"",""stopped"",""stopped"",""stopped"",""stopped"",""stopped"",""stopped"",""stopped"",""stopped"",""stopped"",""stopped"",""stopped"",""stopped"",""stopped"",""stopped"",""stopped"",""stopped"",""stopped"",""stopped"",""stopped"",""stopped"",""stopped"",""stopped"",""stopped"",""stopped"",""stopped"",""stopped"",""stopped"",""stopped"",""stopped"",""stopped"",""stopped"",""stopped"",""stopped"",""stopped"",""stopped"",""stopped"",""stopped"",""stopped"",""stopped"",""stopped"",""stopped"",""stopped"",""stopped"",""stopped"",""stopped"",""stopped"",""stopped"",""stopped"",""stopped"",""stopped"",""stopped"",""stopped"",""stopped"",""stopped"",""stopped"",""stopped"",""stopped"",""stopped"",""stopped"",""stopped"",""stopped"",""stopped"",""stopped"",""stopped"",""down"",""down"",""down"",""down"",""down"",""down"",""down"",""down"",""down"",""down"",""down"",""down"",""down"",""down"",""down"",""down"",""down"",""down"",""down"",""down"",""down"",""down"",""down"",""down"",""down"",""stopped"",""stopped"",""stopped"",""stopped"",""stopped"",""stopped"",""stopped"",""stopped"",""stopped"",""stopped"",""stopped"",""stopped"",""stopped"",""left"",""left"",""left"",""left"",""left"",""left"",""left"",""left"",""left"",""left"",""left"",""left"",""left"",""left"",""left""]","[0,0,0,0,0,0,0,0,0,0,0,0,0,0,0,0,0,0,0,0,0,0,0,0,0,0,0,0,0,0,0,0,0,0,0,0,0,0,0,0,0,0,0,0,0,0,0,0,0,0,0,0,0,0,0,0,0,0,0,0,0,0,0,0,0,0,0,0,1,1,1,1,1,1,1,1,1,1,1,1,1,1,1,1,1,1,1,1,1,1,1,1,1,0,0,0,0,0,0,0,0,0,0,0,0,0,1,1,1,1,1,1,1,1,1,1,1,1,1,1,1]",412,-57.5,12.5,1,40,0,40,0,1,39,,,,,,,,,
,,,,,,,,,,,,,,,,,,,,,5ec3241b63dd40000cba7af3,23,Female,2020-07-28_13h21.32.467,ProlificManual,3.2.2,Win32,60,5ec3241b63dd40000cba7af3,5f1f20d4c389060d55cb9bc4,5f20183615a22828cb609c01,,,,,,,,,,,,,5556,1,0,1,0,1,0,,,,,,,300,200,0,const,3.5,92,right,86,-76,"[""stopped"",""stopped"",""stopped"",""stopped"",""stopped"",""stopped"",""stopped"",""stopped"",""stopped"",""stopped"",""stopped"",""stopped"",""stopped"",""stopped"",""stopped"",""stopped"",""stopped"",""stopped"",""stopped"",""stopped"",""stopped"",""stopped"",""stopped"",""stopped"",""stopped"",""stopped"",""stopped"",""stopped"",""stopped"",""stopped"",""stopped"",""stopped"",""stopped"",""stopped"",""stopped"",""stopped"",""stopped"",""stopped"",""stopped"",""stopped"",""stopped"",""stopped"",""stopped"",""stopped"",""stopped"",""stopped"",""stopped"",""stopped"",""down"",""down"",""down"",""down"",""down"",""down"",""down"",""down"",""down"",""down"",""down"",""down"",""down"",""down"",""down"",""down"",""down"",""down"",""down"",""down"",""down"",""down"",""down"",""down"",""down"",""down"",""stopped"",""stopped"",""stopped"",""stopped"",""stopped"",""stopped"",""stopped"",""stopped"",""stopped"",""stopped"",""stopped"",""stopped"",""stopped"",""stopped"",""stopped"",""stopped"",""stopped"",""stopped"",""stopped"",""stopped"",""stopped"",""stopped"",""stopped"",""stopped"",""stopped"",""stopped"",""stopped"",""stopped"",""stopped"",""stopped"",""stopped"",""stopped"",""stopped"",""stopped"",""stopped"",""stopped"",""stopped"",""stopped"",""stopped"",""stopped"",""stopped"",""stopped"",""stopped"",""stopped"",""stopped"",""stopped"",""stopped""]","[0,0,0,0,0,0,0,0,0,0,0,0,0,0,0,0,0,0,0,0,0,0,0,0,0,0,0,0,0,0,0,0,0,0,0,0,0,0,0,0,0,0,0,0,0,0,0,0,1,1,1,1,1,1,1,1,1,1,1,1,1,1,1,1,1,1,1,1,1,1,1,1,1,1,0,0,0,0,0,0,0,0,0,0,0,0,0,0,0,0,0,0,0,0,0,0,0,0,0,0,0,0,0,0,0,0,0,0,0,0,0,0,0,0,0,0,0,0,0,0,0]",291,86,9,0,40,0,40,0,1,39,,,,,,,,,
,,,,,,,,,,,,,,,,,,,,,5ec3241b63dd40000cba7af3,23,Female,2020-07-28_13h21.32.467,ProlificManual,3.2.2,Win32,60,5ec3241b63dd40000cba7af3,5f1f20d4c389060d55cb9bc4,5f20183615a22828cb609c01,,,,,,,,,,,,,3878,1,0,1,0,1,0,,,,,,,500,400,0,const,3.5,108,right,-100,-129,"[""stopped"",""stopped"",""stopped"",""stopped"",""stopped"",""stopped"",""stopped"",""stopped"",""stopped"",""stopped"",""stopped"",""stopped"",""stopped"",""stopped"",""stopped"",""stopped"",""stopped"",""stopped"",""stopped"",""stopped"",""stopped"",""stopped"",""stopped"",""stopped"",""stopped"",""stopped"",""stopped"",""stopped"",""stopped"",""stopped"",""stopped"",""stopped"",""stopped"",""stopped"",""stopped"",""stopped"",""stopped"",""stopped"",""stopped"",""stopped"",""stopped"",""stopped"",""stopped"",""stopped"",""stopped"",""stopped"",""stopped"",""stopped"",""stopped"",""stopped"",""stopped"",""stopped"",""stopped"",""stopped"",""stopped"",""stopped"",""stopped"",""stopped"",""stopped"",""stopped"",""stopped"",""down"",""down"",""down"",""down"",""down"",""down"",""down"",""down"",""down"",""down"",""down"",""down"",""down"",""down"",""down"",""down"",""down"",""down"",""down"",""down"",""down"",""down"",""down"",""stopped"",""stopped"",""stopped"",""stopped"",""stopped"",""stopped"",""stopped"",""stopped"",""stopped"",""stopped"",""stopped"",""stopped"",""stopped"",""stopped"",""stopped"",""stopped"",""stopped"",""stopped"",""stopped"",""stopped"",""right"",""right"",""right"",""right"",""right"",""right"",""right"",""right"",""right"",""right"",""right"",""right"",""right"",""right"",""right"",""right"",""right""]","[0,0,0,0,0,0,0,0,0,0,0,0,0,0,0,0,0,0,0,0,0,0,0,0,0,0,0,0,0,0,0,0,0,0,0,0,0,0,0,0,0,0,0,0,0,0,0,0,0,0,0,0,0,0,0,0,0,0,0,0,0,1,1,1,1,1,1,1,1,1,1,1,1,1,1,1,1,1,1,1,1,1,1,1,0,0,0,0,0,0,0,0,0,0,0,0,0,0,0,0,0,0,0,0,1,1,1,1,1,1,1,1,1,1,1,1,1,1,1,1,1]",370,-40.5,19.5,0,40,0,40,0,1,39,,,,,,,,,
