Browser,true_x_res,true_y_res,x_adjustment,y_adjustment,Params_TravelTime,Params_yOffset,Params_Reach,Params_ScreenWidth,Params_ScreenHeight,Params_Hz,Params_HzScale,Params_conf_linewidth,ExperimentStarted,params_consent,ConsentLoop.thisRepN,ConsentLoop.thisTrialN,ConsentLoop.thisN,ConsentLoop.thisIndex,ConsentLoop.ran,ConsentLoop.order,participant,Age,Gender,date,expName,psychopyVersion,OS,frameRate,PROLIFIC_PID,STUDY_ID,SESSION_ID,Demo_speedCond,Demo_delta,Demo_xposTarget,Demo_yposTarget,Demo_Delay,Demo_AvSpeed,Demo_Success,Demo_motion,Demo_Click,Demo_RTms,Demo_finalX,Demo_finalY,Trial_duration,BlockLoop.thisRepN,BlockLoop.thisTrialN,BlockLoop.thisN,BlockLoop.thisIndex,BlockLoop.ran,BlockLoop.order,DemoLoop.thisRepN,DemoLoop.thisTrialN,DemoLoop.thisN,DemoLoop.thisIndex,DemoLoop.ran,DemoLoop.order
Chrome,1140,721,1,1,120,100,45,1200,600,60,1,300,7/28/20,Agreed,3,0,3,0,1,2,5b5f15f2fc072a00017da73d,57,female,2020-07-28_13h23.06.223,ProlificManual,3.2.2,Win32,60,5b5f15f2fc072a00017da73d,5f1f20d4c389060d55cb9bc4,5f201886b6b02a277df1a42d,,,,,,,,,,,,,,,,,,,,,,,,,
,,,,,,,,,,,,,,Agreed,3,0,3,0,1,2,5b5f15f2fc072a00017da73d,57,female,2020-07-28_13h23.06.223,ProlificManual,3.2.2,Win32,60,5b5f15f2fc072a00017da73d,5f1f20d4c389060d55cb9bc4,5f201886b6b02a277df1a42d,,,,,,,,,,,,,,,,,,,,,,,,,
,,,,,,,,,,,,,,Agreed,3,0,3,0,1,2,5b5f15f2fc072a00017da73d,57,female,2020-07-28_13h23.06.223,ProlificManual,3.2.2,Win32,60,5b5f15f2fc072a00017da73d,5f1f20d4c389060d55cb9bc4,5f201886b6b02a277df1a42d,,,,,,,,,,,,,,,,,,,,,,,,,
,,,,,,,,,,,,,,,,,,,,,5b5f15f2fc072a00017da73d,57,female,2020-07-28_13h23.06.223,ProlificManual,3.2.2,Win32,60,5b5f15f2fc072a00017da73d,5f1f20d4c389060d55cb9bc4,5f201886b6b02a277df1a42d,const,300,-200,0,60,3.5,0,"[""stopped"",""stopped"",""stopped"",""stopped"",""stopped"",""stopped"",""stopped"",""stopped"",""stopped"",""stopped"",""stopped"",""stopped"",""stopped"",""stopped"",""stopped"",""stopped"",""stopped"",""stopped"",""stopped"",""stopped"",""stopped"",""stopped"",""stopped"",""stopped"",""stopped"",""stopped"",""stopped"",""stopped"",""stopped"",""stopped"",""stopped"",""stopped"",""stopped"",""stopped"",""stopped"",""stopped"",""stopped"",""stopped"",""stopped"",""stopped"",""stopped"",""stopped"",""stopped"",""stopped"",""stopped"",""stopped"",""stopped"",""stopped"",""stopped"",""stopped"",""stopped"",""stopped"",""stopped"",""stopped"",""stopped"",""down"",""down"",""stopped"",""stopped"",""stopped"",""stopped"",""down"",""down"",""down"",""down"",""down"",""stopped"",""stopped"",""stopped"",""stopped"",""stopped"",""stopped"",""stopped"",""down"",""down"",""down"",""down"",""down"",""stopped"",""stopped"",""stopped"",""down"",""down"",""down"",""stopped"",""stopped"",""down"",""down"",""down"",""down"",""stopped"",""stopped"",""stopped"",""stopped"",""down"",""down"",""down"",""down"",""stopped"",""stopped"",""stopped"",""down"",""down"",""down"",""down"",""stopped"",""stopped"",""stopped"",""stopped"",""down"",""down"",""stopped"",""stopped"",""stopped"",""stopped"",""stopped"",""stopped"",""stopped"",""stopped"",""stopped"",""stopped""]","[0,0,0,0,0,0,0,0,0,0,0,0,0,0,0,0,0,0,0,0,0,0,0,0,0,0,0,0,0,0,0,0,0,0,0,0,0,0,0,0,0,0,0,0,0,0,0,0,0,0,0,0,0,0,0,1,1,0,0,0,0,1,1,1,1,1,0,0,0,0,0,0,0,1,1,1,1,1,0,0,0,1,1,1,0,0,1,1,1,1,0,0,0,0,1,1,1,1,0,0,0,1,1,1,1,0,0,0,0,1,1,0,0,0,0,0,0,0,0,0,0]",1498,0,-1.5,48255,1,0,1,0,1,0,48,0,48,0,1,47
,,,,,,,,,,,,,,,,,,,,,5b5f15f2fc072a00017da73d,57,female,2020-07-28_13h23.06.223,ProlificManual,3.2.2,Win32,60,5b5f15f2fc072a00017da73d,5f1f20d4c389060d55cb9bc4,5f201886b6b02a277df1a42d,,400,300,0,125,3.5,0,"[""stopped"",""stopped"",""stopped"",""stopped"",""stopped"",""stopped"",""stopped"",""stopped"",""stopped"",""stopped"",""stopped"",""stopped"",""stopped"",""stopped"",""stopped"",""stopped"",""stopped"",""stopped"",""stopped"",""stopped"",""stopped"",""stopped"",""stopped"",""stopped"",""stopped"",""stopped"",""stopped"",""stopped"",""stopped"",""stopped"",""stopped"",""stopped"",""stopped"",""stopped"",""stopped"",""stopped"",""stopped"",""stopped"",""stopped"",""stopped"",""stopped"",""stopped"",""stopped"",""stopped"",""stopped"",""stopped"",""stopped"",""stopped"",""stopped"",""stopped"",""stopped"",""stopped"",""stopped"",""stopped"",""stopped"",""down"",""down"",""down"",""down"",""down"",""down"",""down"",""down"",""down"",""down"",""down"",""down"",""down"",""down"",""down"",""down"",""down"",""down"",""down"",""down"",""down"",""down"",""down"",""down"",""down"",""down"",""down"",""down"",""down"",""down"",""down"",""down"",""down"",""down"",""down"",""down"",""stopped"",""stopped"",""stopped"",""stopped"",""stopped"",""stopped"",""stopped"",""stopped"",""stopped"",""stopped"",""stopped"",""stopped"",""stopped"",""stopped"",""stopped"",""stopped"",""stopped"",""stopped"",""stopped"",""stopped"",""stopped"",""stopped"",""stopped"",""stopped"",""stopped"",""stopped"",""stopped"",""stopped"",""stopped"",""stopped""]","[0,0,0,0,0,0,0,0,0,0,0,0,0,0,0,0,0,0,0,0,0,0,0,0,0,0,0,0,0,0,0,0,0,0,0,0,0,0,0,0,0,0,0,0,0,0,0,0,0,0,0,0,0,0,0,1,1,1,1,1,1,1,1,1,1,1,1,1,1,1,1,1,1,1,1,1,1,1,1,1,1,1,1,1,1,1,1,1,1,1,1,0,0,0,0,0,0,0,0,0,0,0,0,0,0,0,0,0,0,0,0,0,0,0,0,0,0,0,0,0,0]",1249,0,-26,10257,1,0,1,0,1,0,48,0,48,0,1,47
,,,,,,,,,,,,,,,,,,,,,5b5f15f2fc072a00017da73d,57,female,2020-07-28_13h23.06.223,ProlificManual,3.2.2,Win32,60,5b5f15f2fc072a00017da73d,5f1f20d4c389060d55cb9bc4,5f201886b6b02a277df1a42d,,300,-200,0,128,3.5,0,"[""stopped"",""stopped"",""stopped"",""stopped"",""stopped"",""stopped"",""stopped"",""stopped"",""stopped"",""stopped"",""stopped"",""stopped"",""stopped"",""stopped"",""stopped"",""stopped"",""stopped"",""stopped"",""stopped"",""stopped"",""stopped"",""stopped"",""stopped"",""stopped"",""stopped"",""stopped"",""stopped"",""stopped"",""stopped"",""stopped"",""stopped"",""stopped"",""stopped"",""stopped"",""stopped"",""stopped"",""stopped"",""stopped"",""stopped"",""stopped"",""stopped"",""stopped"",""stopped"",""stopped"",""stopped"",""stopped"",""stopped"",""stopped"",""stopped"",""stopped"",""stopped"",""stopped"",""stopped"",""stopped"",""stopped"",""stopped"",""stopped"",""stopped"",""stopped"",""stopped"",""stopped"",""stopped"",""stopped"",""stopped"",""stopped"",""stopped"",""stopped"",""stopped"",""stopped"",""stopped"",""stopped"",""stopped"",""stopped"",""stopped"",""stopped"",""stopped"",""stopped"",""stopped"",""stopped"",""stopped"",""stopped"",""stopped"",""stopped"",""stopped"",""stopped"",""stopped"",""stopped"",""stopped"",""stopped"",""stopped"",""stopped"",""stopped"",""stopped"",""stopped"",""stopped"",""stopped"",""stopped"",""stopped"",""stopped"",""stopped"",""stopped"",""stopped"",""stopped"",""stopped"",""stopped"",""stopped"",""stopped"",""stopped"",""stopped"",""stopped"",""stopped"",""stopped"",""stopped"",""stopped"",""stopped"",""stopped"",""stopped"",""stopped"",""stopped"",""stopped"",""stopped""]","[0,0,0,0,0,0,0,0,0,0,0,0,0,0,0,0,0,0,0,0,0,0,0,0,0,0,0,0,0,0,0,0,0,0,0,0,0,0,0,0,0,0,0,0,0,0,0,0,0,0,0,0,0,0,0,0,0,0,0,0,0,0,0,0,0,0,0,0,0,0,0,0,0,0,0,0,0,0,0,0,0,0,0,0,0,0,0,0,0,0,0,0,0,0,0,0,0,0,0,0,0,0,0,0,0,0,0,0,0,0,0,0,0,0,0,0,0,0,0,0,0]",NaN,0,100,86358,1,0,1,0,1,0,48,0,48,0,1,47
,,,,,,,,,,,,,,,,,,,,,5b5f15f2fc072a00017da73d,57,female,2020-07-28_13h23.06.223,ProlificManual,3.2.2,Win32,60,5b5f15f2fc072a00017da73d,5f1f20d4c389060d55cb9bc4,5f201886b6b02a277df1a42d,,400,-300,0,125,3.5,0,"[""stopped"",""stopped"",""stopped"",""stopped"",""stopped"",""stopped"",""stopped"",""stopped"",""stopped"",""stopped"",""stopped"",""stopped"",""stopped"",""stopped"",""stopped"",""stopped"",""stopped"",""stopped"",""stopped"",""stopped"",""stopped"",""down"",""down"",""down"",""down"",""stopped"",""stopped"",""stopped"",""stopped"",""down"",""down"",""down"",""down"",""stopped"",""stopped"",""stopped"",""down"",""down"",""down"",""down"",""down"",""down"",""down"",""stopped"",""stopped"",""stopped"",""stopped"",""stopped"",""down"",""down"",""down"",""down"",""stopped"",""stopped"",""stopped"",""stopped"",""stopped"",""stopped"",""stopped"",""left"",""left"",""left"",""stopped"",""stopped"",""stopped"",""left"",""left"",""left"",""left"",""stopped"",""left"",""left"",""left"",""left"",""stopped"",""stopped"",""left"",""left"",""left"",""left"",""left"",""left"",""left"",""left"",""left"",""left"",""left"",""left"",""left"",""left"",""left"",""left"",""left"",""left"",""left"",""left"",""left"",""left"",""left"",""left"",""left"",""left"",""left"",""left"",""left"",""left"",""left"",""left"",""left"",""left"",""left"",""left"",""left"",""left"",""left"",""left"",""left"",""left"",""left"",""left"",""left""]","[0,0,0,0,0,0,0,0,0,0,0,0,0,0,0,0,0,0,0,0,0,1,1,1,1,0,0,0,0,1,1,1,1,0,0,0,1,1,1,1,1,1,1,0,0,0,0,0,1,1,1,1,0,0,0,0,0,0,0,1,1,1,0,0,0,1,1,1,1,0,1,1,1,1,0,0,1,1,1,1,1,1,1,1,1,1,1,1,1,1,1,1,1,1,1,1,1,1,1,1,1,1,1,1,1,1,1,1,1,1,1,1,1,1,1,1,1,1,1,1,1]",436,-196,33.5,12934,1,0,1,0,1,0,48,0,48,0,1,47
,,,,,,,,,,,,,,,,,,,,,5b5f15f2fc072a00017da73d,57,female,2020-07-28_13h23.06.223,ProlificManual,3.2.2,Win32,60,5b5f15f2fc072a00017da73d,5f1f20d4c389060d55cb9bc4,5f201886b6b02a277df1a42d,,200,-100,0,76,3.5,0,"[""stopped"",""stopped"",""stopped"",""stopped"",""stopped"",""stopped"",""stopped"",""stopped"",""stopped"",""stopped"",""stopped"",""stopped"",""stopped"",""stopped"",""stopped"",""stopped"",""stopped"",""down"",""down"",""down"",""down"",""stopped"",""stopped"",""stopped"",""stopped"",""down"",""down"",""down"",""stopped"",""stopped"",""stopped"",""down"",""down"",""down"",""stopped"",""stopped"",""stopped"",""down"",""down"",""stopped"",""stopped"",""stopped"",""stopped"",""down"",""down"",""down"",""down"",""stopped"",""stopped"",""stopped"",""down"",""down"",""down"",""stopped"",""stopped"",""stopped"",""stopped"",""down"",""down"",""stopped"",""stopped"",""stopped"",""stopped"",""left"",""left"",""left"",""left"",""stopped"",""stopped"",""stopped"",""left"",""left"",""left"",""stopped"",""stopped"",""stopped"",""left"",""left"",""left"",""stopped"",""stopped"",""stopped"",""left"",""left"",""left"",""stopped"",""stopped"",""stopped"",""stopped"",""down"",""down"",""down"",""down"",""down"",""down"",""stopped"",""stopped"",""stopped"",""stopped"",""stopped"",""stopped"",""stopped"",""stopped"",""stopped"",""stopped"",""stopped"",""stopped"",""stopped"",""stopped"",""stopped"",""stopped"",""stopped"",""stopped"",""stopped"",""stopped"",""stopped"",""stopped"",""stopped"",""stopped"",""stopped"",""stopped""]","[0,0,0,0,0,0,0,0,0,0,0,0,0,0,0,0,0,1,1,1,1,0,0,0,0,1,1,1,0,0,0,1,1,1,0,0,0,1,1,0,0,0,0,1,1,1,1,0,0,0,1,1,1,0,0,0,0,1,1,0,0,0,0,1,1,1,1,0,0,0,1,1,1,0,0,0,1,1,1,0,0,0,1,1,1,0,0,0,0,1,1,1,1,1,1,0,0,0,0,0,0,0,0,0,0,0,0,0,0,0,0,0,0,0,0,0,0,0,0,0,0]",380,-45.5,5.5,9432,1,0,1,0,1,0,48,0,48,0,1,47
,,,,,,,,,,,,,,,,,,,,,5b5f15f2fc072a00017da73d,57,female,2020-07-28_13h23.06.223,ProlificManual,3.2.2,Win32,60,5b5f15f2fc072a00017da73d,5f1f20d4c389060d55cb9bc4,5f201886b6b02a277df1a42d,,500,400,0,149,3.5,0,"[""stopped"",""stopped"",""stopped"",""stopped"",""stopped"",""stopped"",""stopped"",""stopped"",""stopped"",""stopped"",""stopped"",""stopped"",""stopped"",""stopped"",""stopped"",""stopped"",""stopped"",""stopped"",""stopped"",""stopped"",""stopped"",""stopped"",""stopped"",""down"",""down"",""down"",""down"",""down"",""stopped"",""stopped"",""stopped"",""down"",""down"",""down"",""stopped"",""stopped"",""stopped"",""stopped"",""stopped"",""stopped"",""stopped"",""right"",""right"",""stopped"",""stopped"",""stopped"",""right"",""right"",""right"",""stopped"",""stopped"",""right"",""right"",""right"",""right"",""stopped"",""stopped"",""stopped"",""right"",""right"",""right"",""stopped"",""stopped"",""stopped"",""right"",""right"",""right"",""stopped"",""stopped"",""stopped"",""right"",""right"",""right"",""right"",""stopped"",""stopped"",""stopped"",""stopped"",""stopped"",""stopped"",""stopped"",""stopped"",""stopped"",""stopped"",""stopped"",""stopped"",""stopped"",""stopped"",""stopped"",""right"",""stopped"",""stopped"",""stopped"",""right"",""right"",""right"",""right"",""stopped"",""stopped"",""stopped"",""right"",""right"",""right"",""stopped"",""stopped"",""stopped"",""right"",""right"",""right"",""right"",""stopped"",""stopped"",""stopped"",""right"",""right"",""right"",""right"",""stopped"",""stopped"",""stopped"",""right""]","[0,0,0,0,0,0,0,0,0,0,0,0,0,0,0,0,0,0,0,0,0,0,0,1,1,1,1,1,0,0,0,1,1,1,0,0,0,0,0,0,0,1,1,0,0,0,1,1,1,0,0,1,1,1,1,0,0,0,1,1,1,0,0,0,1,1,1,0,0,0,1,1,1,1,0,0,0,0,0,0,0,0,0,0,0,0,0,0,0,1,0,0,0,1,1,1,1,0,0,0,1,1,1,0,0,0,1,1,1,1,0,0,0,1,1,1,1,0,0,0,1]",468,126,72,13873,1,0,1,0,1,0,48,0,48,0,1,47
,,,,,,,,,,,,,,,,,,,,,5b5f15f2fc072a00017da73d,57,female,2020-07-28_13h23.06.223,ProlificManual,3.2.2,Win32,60,5b5f15f2fc072a00017da73d,5f1f20d4c389060d55cb9bc4,5f201886b6b02a277df1a42d,,300,-200,0,147,3.5,1,"[""stopped"",""stopped"",""stopped"",""stopped"",""stopped"",""stopped"",""stopped"",""stopped"",""stopped"",""stopped"",""stopped"",""stopped"",""stopped"",""stopped"",""stopped"",""stopped"",""stopped"",""stopped"",""stopped"",""stopped"",""stopped"",""down"",""down"",""down"",""down"",""down"",""down"",""down"",""down"",""down"",""down"",""down"",""down"",""down"",""down"",""down"",""down"",""down"",""down"",""down"",""down"",""down"",""down"",""down"",""down"",""down"",""down"",""stopped"",""stopped"",""stopped"",""stopped"",""stopped"",""stopped"",""left"",""left"",""left"",""left"",""left"",""left"",""left"",""left"",""left"",""left"",""left"",""left"",""left"",""left"",""left"",""left"",""left"",""left"",""left"",""left"",""left"",""left"",""left"",""left"",""left"",""left"",""left"",""left"",""left"",""left"",""left"",""left"",""left"",""left"",""left"",""left"",""left"",""left"",""left"",""left"",""left"",""left"",""left"",""left"",""left""]","[0,0,0,0,0,0,0,0,0,0,0,0,0,0,0,0,0,0,0,0,0,1,1,1,1,1,1,1,1,1,1,1,1,1,1,1,1,1,1,1,1,1,1,1,1,1,1,0,0,0,0,0,0,1,1,1,1,1,1,1,1,1,1,1,1,1,1,1,1,1,1,1,1,1,1,1,1,1,1,1,1,1,1,1,1,1,1,1,1,1,1,1,1,1,1,1,1,1]",421,-157.5,9,11109,1,0,1,0,1,0,48,0,48,0,1,47
,,,,,,,,,,,,,,,,,,,,,5b5f15f2fc072a00017da73d,57,female,2020-07-28_13h23.06.223,ProlificManual,3.2.2,Win32,60,5b5f15f2fc072a00017da73d,5f1f20d4c389060d55cb9bc4,5f201886b6b02a277df1a42d,,200,-100,0,105,3.5,1,"[""stopped"",""stopped"",""stopped"",""stopped"",""stopped"",""stopped"",""stopped"",""stopped"",""stopped"",""stopped"",""stopped"",""stopped"",""stopped"",""stopped"",""stopped"",""stopped"",""stopped"",""stopped"",""down"",""down"",""down"",""down"",""down"",""down"",""down"",""down"",""down"",""down"",""down"",""down"",""down"",""down"",""down"",""down"",""down"",""down"",""down"",""down"",""down"",""stopped"",""stopped"",""stopped"",""stopped"",""stopped"",""stopped"",""stopped"",""stopped"",""stopped"",""left"",""left"",""left"",""left"",""left"",""left"",""left"",""left"",""left"",""left"",""left"",""left"",""left"",""left"",""left"",""left"",""left"",""left"",""left""]","[0,0,0,0,0,0,0,0,0,0,0,0,0,0,0,0,0,0,1,1,1,1,1,1,1,1,1,1,1,1,1,1,1,1,1,1,1,1,1,0,0,0,0,0,0,0,0,0,1,1,1,1,1,1,1,1,1,1,1,1,1,1,1,1,1,1,1]",429,-66.5,26.5,11740,1,0,1,0,1,0,48,0,48,0,1,47
,,,,,,,,,,,,,,,,,,,,,5b5f15f2fc072a00017da73d,57,female,2020-07-28_13h23.06.223,ProlificManual,3.2.2,Win32,60,5b5f15f2fc072a00017da73d,5f1f20d4c389060d55cb9bc4,5f201886b6b02a277df1a42d,,200,-100,0,136,3.5,1,"[""stopped"",""stopped"",""stopped"",""stopped"",""stopped"",""stopped"",""stopped"",""stopped"",""stopped"",""stopped"",""stopped"",""stopped"",""stopped"",""stopped"",""stopped"",""stopped"",""stopped"",""stopped"",""stopped"",""stopped"",""stopped"",""stopped"",""down"",""down"",""down"",""down"",""down"",""down"",""down"",""down"",""down"",""down"",""down"",""down"",""down"",""down"",""down"",""down"",""down"",""down"",""down"",""down"",""down"",""down"",""down"",""down"",""stopped"",""stopped"",""stopped"",""stopped"",""left"",""left"",""left"",""left"",""left"",""left"",""left"",""left"",""left"",""left"",""left"",""left"",""left"",""left"",""left"",""left"",""left""]","[0,0,0,0,0,0,0,0,0,0,0,0,0,0,0,0,0,0,0,0,0,0,1,1,1,1,1,1,1,1,1,1,1,1,1,1,1,1,1,1,1,1,1,1,1,1,0,0,0,0,1,1,1,1,1,1,1,1,1,1,1,1,1,1,1,1,1]",448,-59.5,16,8255,1,0,1,0,1,0,48,0,48,0,1,47
,,,,,,,,,,,,,,,,,,,,,5b5f15f2fc072a00017da73d,57,female,2020-07-28_13h23.06.223,ProlificManual,3.2.2,Win32,60,5b5f15f2fc072a00017da73d,5f1f20d4c389060d55cb9bc4,5f201886b6b02a277df1a42d,,400,300,0,107,3.5,1,"[""stopped"",""stopped"",""stopped"",""stopped"",""stopped"",""stopped"",""stopped"",""stopped"",""stopped"",""stopped"",""stopped"",""stopped"",""stopped"",""down"",""down"",""down"",""down"",""down"",""down"",""down"",""down"",""down"",""down"",""down"",""down"",""down"",""down"",""down"",""down"",""down"",""down"",""down"",""down"",""down"",""down"",""down"",""down"",""stopped"",""stopped"",""stopped"",""stopped"",""right"",""right"",""right"",""right"",""right"",""right"",""right"",""right"",""right"",""right"",""right"",""right"",""right"",""right"",""right"",""right"",""right"",""right"",""right"",""right"",""right"",""right"",""right"",""right"",""right"",""right"",""right"",""right"",""right"",""right"",""right"",""right"",""right"",""right"",""right"",""right"",""right"",""right"",""right"",""right"",""right"",""right"",""right"",""right"",""right"",""right"",""right"",""right"",""right"",""right"",""right"",""right"",""right"",""right"",""right"",""right"",""right"",""right"",""right"",""right"",""right"",""right"",""right"",""right"",""right"",""right"",""right"",""right"",""right"",""right"",""right"",""right"",""right"",""right""]","[0,0,0,0,0,0,0,0,0,0,0,0,0,1,1,1,1,1,1,1,1,1,1,1,1,1,1,1,1,1,1,1,1,1,1,1,1,0,0,0,0,1,1,1,1,1,1,1,1,1,1,1,1,1,1,1,1,1,1,1,1,1,1,1,1,1,1,1,1,1,1,1,1,1,1,1,1,1,1,1,1,1,1,1,1,1,1,1,1,1,1,1,1,1,1,1,1,1,1,1,1,1,1,1,1,1,1,1,1,1,1,1,1,1,1]",330,259,16,10310,1,0,1,0,1,0,48,0,48,0,1,47
,,,,,,,,,,,,,,,,,,,,,5b5f15f2fc072a00017da73d,57,female,2020-07-28_13h23.06.223,ProlificManual,3.2.2,Win32,60,5b5f15f2fc072a00017da73d,5f1f20d4c389060d55cb9bc4,5f201886b6b02a277df1a42d,,200,-100,0,132,3.5,1,"[""stopped"",""stopped"",""stopped"",""stopped"",""stopped"",""stopped"",""stopped"",""stopped"",""stopped"",""stopped"",""stopped"",""stopped"",""stopped"",""stopped"",""stopped"",""stopped"",""stopped"",""stopped"",""stopped"",""stopped"",""stopped"",""stopped"",""stopped"",""down"",""down"",""down"",""down"",""down"",""down"",""down"",""down"",""down"",""down"",""down"",""down"",""down"",""down"",""down"",""down"",""down"",""down"",""down"",""down"",""down"",""down"",""down"",""down"",""down"",""stopped"",""stopped"",""stopped"",""stopped"",""stopped"",""left"",""left"",""left"",""left"",""left"",""left"",""left"",""left"",""left"",""left"",""left"",""left"",""left"",""left"",""left"",""left"",""left""]","[0,0,0,0,0,0,0,0,0,0,0,0,0,0,0,0,0,0,0,0,0,0,0,1,1,1,1,1,1,1,1,1,1,1,1,1,1,1,1,1,1,1,1,1,1,1,1,1,0,0,0,0,0,1,1,1,1,1,1,1,1,1,1,1,1,1,1,1,1,1]",474,-59.5,12.5,15722,1,0,1,0,1,0,48,0,48,0,1,47
,,,,,,,,,,,,,,,,,,,,,5b5f15f2fc072a00017da73d,57,female,2020-07-28_13h23.06.223,ProlificManual,3.2.2,Win32,60,5b5f15f2fc072a00017da73d,5f1f20d4c389060d55cb9bc4,5f201886b6b02a277df1a42d,,500,-400,0,86,3.5,0,"[""stopped"",""stopped"",""stopped"",""stopped"",""stopped"",""stopped"",""stopped"",""stopped"",""stopped"",""stopped"",""stopped"",""stopped"",""stopped"",""stopped"",""stopped"",""stopped"",""stopped"",""stopped"",""stopped"",""stopped"",""stopped"",""stopped"",""stopped"",""stopped"",""stopped"",""stopped"",""stopped"",""stopped"",""down"",""down"",""down"",""down"",""down"",""down"",""down"",""down"",""down"",""down"",""down"",""down"",""down"",""down"",""down"",""down"",""down"",""down"",""down"",""down"",""down"",""down"",""down"",""down"",""stopped"",""stopped"",""stopped"",""stopped"",""left"",""left"",""left"",""left"",""left"",""left"",""left"",""left"",""left"",""left"",""left"",""left"",""left"",""left"",""left"",""left"",""left"",""left"",""left"",""left"",""left"",""left"",""left"",""left"",""left"",""left"",""left"",""left"",""left"",""left"",""left"",""left"",""left"",""left"",""left"",""left"",""left"",""left"",""left"",""left"",""left"",""left"",""left"",""left"",""left"",""left"",""left"",""left"",""left"",""left"",""left"",""left"",""left"",""left"",""left"",""left"",""left"",""left"",""left"",""left"",""left"",""left"",""left"",""left"",""left""]","[0,0,0,0,0,0,0,0,0,0,0,0,0,0,0,0,0,0,0,0,0,0,0,0,0,0,0,0,1,1,1,1,1,1,1,1,1,1,1,1,1,1,1,1,1,1,1,1,1,1,1,1,0,0,0,0,1,1,1,1,1,1,1,1,1,1,1,1,1,1,1,1,1,1,1,1,1,1,1,1,1,1,1,1,1,1,1,1,1,1,1,1,1,1,1,1,1,1,1,1,1,1,1,1,1,1,1,1,1,1,1,1,1,1,1,1,1,1,1,1,1]",561,-227.5,16,8150,1,0,1,0,1,0,48,0,48,0,1,47
,,,,,,,,,,,,,,,,,,,,,5b5f15f2fc072a00017da73d,57,female,2020-07-28_13h23.06.223,ProlificManual,3.2.2,Win32,60,5b5f15f2fc072a00017da73d,5f1f20d4c389060d55cb9bc4,5f201886b6b02a277df1a42d,,200,100,0,83,3.5,1,"[""stopped"",""stopped"",""stopped"",""stopped"",""stopped"",""stopped"",""stopped"",""stopped"",""stopped"",""stopped"",""stopped"",""stopped"",""stopped"",""stopped"",""stopped"",""stopped"",""down"",""down"",""down"",""down"",""down"",""down"",""down"",""down"",""down"",""down"",""down"",""down"",""down"",""down"",""down"",""down"",""down"",""down"",""down"",""down"",""down"",""stopped"",""stopped"",""stopped"",""stopped"",""stopped"",""stopped"",""stopped"",""stopped"",""right"",""right"",""right"",""right"",""right"",""right"",""right"",""right"",""right"",""right"",""right"",""right"",""right"",""right"",""right"",""right"",""right"",""right"",""right""]","[0,0,0,0,0,0,0,0,0,0,0,0,0,0,0,0,1,1,1,1,1,1,1,1,1,1,1,1,1,1,1,1,1,1,1,1,1,0,0,0,0,0,0,0,0,1,1,1,1,1,1,1,1,1,1,1,1,1,1,1,1,1,1,1]",327,66.5,26.5,6667,1,0,1,0,1,0,48,0,48,0,1,47
,,,,,,,,,,,,,,,,,,,,,5b5f15f2fc072a00017da73d,57,female,2020-07-28_13h23.06.223,ProlificManual,3.2.2,Win32,60,5b5f15f2fc072a00017da73d,5f1f20d4c389060d55cb9bc4,5f201886b6b02a277df1a42d,,300,200,0,114,3.5,1,"[""stopped"",""stopped"",""stopped"",""stopped"",""stopped"",""stopped"",""stopped"",""stopped"",""stopped"",""stopped"",""stopped"",""stopped"",""stopped"",""stopped"",""stopped"",""stopped"",""stopped"",""stopped"",""stopped"",""down"",""down"",""down"",""down"",""down"",""down"",""down"",""down"",""down"",""down"",""down"",""down"",""down"",""down"",""down"",""down"",""down"",""down"",""down"",""down"",""down"",""down"",""down"",""down"",""down"",""stopped"",""stopped"",""stopped"",""stopped"",""right"",""right"",""right"",""right"",""right"",""right"",""right"",""right"",""right"",""right"",""right"",""right"",""right"",""right"",""right"",""right"",""right"",""right"",""right"",""right"",""right"",""right"",""right"",""right"",""right"",""right"",""right"",""right"",""right"",""right"",""right"",""right"",""right"",""right"",""right"",""right"",""right"",""right"",""right"",""right"",""right"",""right"",""right"",""right"",""right""]","[0,0,0,0,0,0,0,0,0,0,0,0,0,0,0,0,0,0,0,1,1,1,1,1,1,1,1,1,1,1,1,1,1,1,1,1,1,1,1,1,1,1,1,1,0,0,0,0,1,1,1,1,1,1,1,1,1,1,1,1,1,1,1,1,1,1,1,1,1,1,1,1,1,1,1,1,1,1,1,1,1,1,1,1,1,1,1,1,1,1,1,1,1]",382,157.5,12.5,8032,1,0,1,0,1,0,48,0,48,0,1,47
,,,,,,,,,,,,,,,,,,,,,5b5f15f2fc072a00017da73d,57,female,2020-07-28_13h23.06.223,ProlificManual,3.2.2,Win32,60,5b5f15f2fc072a00017da73d,5f1f20d4c389060d55cb9bc4,5f201886b6b02a277df1a42d,,300,200,0,130,3.5,1,"[""stopped"",""stopped"",""stopped"",""stopped"",""stopped"",""stopped"",""stopped"",""stopped"",""stopped"",""stopped"",""stopped"",""stopped"",""stopped"",""stopped"",""stopped"",""stopped"",""stopped"",""stopped"",""down"",""down"",""down"",""down"",""down"",""down"",""down"",""down"",""down"",""down"",""down"",""down"",""down"",""down"",""down"",""down"",""down"",""down"",""down"",""down"",""down"",""down"",""down"",""down"",""down"",""down"",""down"",""stopped"",""stopped"",""stopped"",""stopped"",""stopped"",""stopped"",""right"",""right"",""right"",""right"",""right"",""right"",""right"",""right"",""right"",""right"",""right"",""right"",""right"",""right"",""right"",""right"",""right"",""right"",""right"",""right"",""right"",""right"",""right"",""right"",""right"",""right"",""right"",""right"",""right"",""right"",""right"",""right"",""right"",""right"",""right"",""right"",""right"",""right"",""right"",""right"",""right"",""right"",""right"",""right"",""right""]","[0,0,0,0,0,0,0,0,0,0,0,0,0,0,0,0,0,0,1,1,1,1,1,1,1,1,1,1,1,1,1,1,1,1,1,1,1,1,1,1,1,1,1,1,1,0,0,0,0,0,0,1,1,1,1,1,1,1,1,1,1,1,1,1,1,1,1,1,1,1,1,1,1,1,1,1,1,1,1,1,1,1,1,1,1,1,1,1,1,1,1,1,1,1,1,1]",373,157.5,5.5,11389,1,0,1,0,1,0,48,0,48,0,1,47
,,,,,,,,,,,,,,,,,,,,,5b5f15f2fc072a00017da73d,57,female,2020-07-28_13h23.06.223,ProlificManual,3.2.2,Win32,60,5b5f15f2fc072a00017da73d,5f1f20d4c389060d55cb9bc4,5f201886b6b02a277df1a42d,,400,300,0,146,3.5,0,"[""stopped"",""stopped"",""stopped"",""stopped"",""stopped"",""stopped"",""stopped"",""stopped"",""stopped"",""stopped"",""stopped"",""stopped"",""stopped"",""stopped"",""stopped"",""stopped"",""stopped"",""stopped"",""stopped"",""stopped"",""down"",""down"",""down"",""down"",""down"",""down"",""down"",""down"",""down"",""down"",""down"",""down"",""down"",""down"",""down"",""down"",""down"",""down"",""down"",""down"",""down"",""down"",""down"",""down"",""down"",""down"",""down"",""down"",""down"",""stopped"",""stopped"",""stopped"",""right"",""right"",""right"",""right"",""right"",""right"",""right"",""right"",""right"",""right"",""right"",""right"",""right"",""right"",""right"",""right"",""right"",""right"",""right"",""right"",""right"",""right"",""right"",""right"",""right"",""right"",""right"",""right"",""right"",""right"",""right"",""right"",""right"",""right"",""right"",""right"",""right"",""right"",""right"",""right"",""right"",""right"",""right"",""right"",""right"",""right"",""right"",""right"",""right"",""right"",""right"",""right"",""right"",""right"",""right"",""right"",""right"",""right"",""right"",""right"",""right"",""right"",""right"",""right"",""right"",""right"",""right"",""right"",""right""]","[0,0,0,0,0,0,0,0,0,0,0,0,0,0,0,0,0,0,0,0,1,1,1,1,1,1,1,1,1,1,1,1,1,1,1,1,1,1,1,1,1,1,1,1,1,1,1,1,1,0,0,0,1,1,1,1,1,1,1,1,1,1,1,1,1,1,1,1,1,1,1,1,1,1,1,1,1,1,1,1,1,1,1,1,1,1,1,1,1,1,1,1,1,1,1,1,1,1,1,1,1,1,1,1,1,1,1,1,1,1,1,1,1,1,1,1,1,1,1,1,1]",410,241.5,-1.5,9708,1,0,1,0,1,0,48,0,48,0,1,47
,,,,,,,,,,,,,,,,,,,,,5b5f15f2fc072a00017da73d,57,female,2020-07-28_13h23.06.223,ProlificManual,3.2.2,Win32,60,5b5f15f2fc072a00017da73d,5f1f20d4c389060d55cb9bc4,5f201886b6b02a277df1a42d,,500,-400,0,84,3.5,0,"[""stopped"",""stopped"",""stopped"",""stopped"",""stopped"",""stopped"",""stopped"",""stopped"",""stopped"",""stopped"",""stopped"",""stopped"",""stopped"",""stopped"",""stopped"",""stopped"",""stopped"",""stopped"",""stopped"",""stopped"",""down"",""down"",""down"",""down"",""down"",""down"",""down"",""down"",""down"",""down"",""down"",""down"",""down"",""down"",""down"",""stopped"",""stopped"",""stopped"",""stopped"",""left"",""left"",""left"",""left"",""left"",""left"",""left"",""left"",""left"",""left"",""left"",""left"",""left"",""left"",""left"",""left"",""left"",""left"",""left"",""left"",""left"",""left"",""left"",""left"",""left"",""left"",""left"",""left"",""left"",""left"",""left"",""left"",""left"",""left"",""left"",""left"",""left"",""left"",""left"",""left"",""left"",""left"",""left"",""left"",""left"",""left"",""left"",""left"",""left"",""left"",""left"",""left"",""left"",""left"",""left"",""left"",""left"",""left"",""left"",""left"",""left"",""left"",""left"",""left"",""left"",""left"",""left"",""left"",""left"",""left"",""left"",""left"",""left"",""left"",""left"",""left"",""left"",""left"",""left"",""left"",""left"",""left""]","[0,0,0,0,0,0,0,0,0,0,0,0,0,0,0,0,0,0,0,0,1,1,1,1,1,1,1,1,1,1,1,1,1,1,1,0,0,0,0,1,1,1,1,1,1,1,1,1,1,1,1,1,1,1,1,1,1,1,1,1,1,1,1,1,1,1,1,1,1,1,1,1,1,1,1,1,1,1,1,1,1,1,1,1,1,1,1,1,1,1,1,1,1,1,1,1,1,1,1,1,1,1,1,1,1,1,1,1,1,1,1,1,1,1,1,1,1,1,1,1,1]",501,-287,47.5,11072,1,0,1,0,1,0,48,0,48,0,1,47
,,,,,,,,,,,,,,,,,,,,,5b5f15f2fc072a00017da73d,57,female,2020-07-28_13h23.06.223,ProlificManual,3.2.2,Win32,60,5b5f15f2fc072a00017da73d,5f1f20d4c389060d55cb9bc4,5f201886b6b02a277df1a42d,,400,300,0,83,3.5,0,"[""stopped"",""stopped"",""stopped"",""stopped"",""stopped"",""stopped"",""stopped"",""stopped"",""stopped"",""stopped"",""stopped"",""stopped"",""stopped"",""stopped"",""stopped"",""stopped"",""stopped"",""stopped"",""stopped"",""down"",""down"",""down"",""down"",""down"",""down"",""down"",""down"",""down"",""down"",""down"",""down"",""down"",""down"",""down"",""down"",""down"",""down"",""down"",""down"",""down"",""down"",""down"",""down"",""down"",""down"",""down"",""stopped"",""stopped"",""stopped"",""stopped"",""right"",""right"",""right"",""right"",""right"",""right"",""right"",""right"",""right"",""right"",""right"",""right"",""right"",""right"",""right"",""right"",""right"",""right"",""right"",""right"",""right"",""right"",""right"",""right"",""right"",""right"",""right"",""right"",""right"",""right"",""right"",""right"",""right"",""right"",""right"",""right"",""right"",""right"",""right"",""right"",""right"",""right"",""right"",""right"",""right"",""right"",""right"",""right"",""right"",""right"",""right"",""right"",""right"",""right"",""right"",""right"",""right"",""right"",""right"",""right"",""right"",""right"",""right"",""right"",""right"",""right"",""right"",""right"",""right"",""right"",""right""]","[0,0,0,0,0,0,0,0,0,0,0,0,0,0,0,0,0,0,0,1,1,1,1,1,1,1,1,1,1,1,1,1,1,1,1,1,1,1,1,1,1,1,1,1,1,1,0,0,0,0,1,1,1,1,1,1,1,1,1,1,1,1,1,1,1,1,1,1,1,1,1,1,1,1,1,1,1,1,1,1,1,1,1,1,1,1,1,1,1,1,1,1,1,1,1,1,1,1,1,1,1,1,1,1,1,1,1,1,1,1,1,1,1,1,1,1,1,1,1,1,1]",409,248.5,5.5,8241,1,0,1,0,1,0,48,0,48,0,1,47
,,,,,,,,,,,,,,,,,,,,,5b5f15f2fc072a00017da73d,57,female,2020-07-28_13h23.06.223,ProlificManual,3.2.2,Win32,60,5b5f15f2fc072a00017da73d,5f1f20d4c389060d55cb9bc4,5f201886b6b02a277df1a42d,,200,-100,0,111,3.5,1,"[""stopped"",""stopped"",""stopped"",""stopped"",""stopped"",""stopped"",""stopped"",""stopped"",""stopped"",""stopped"",""stopped"",""stopped"",""stopped"",""stopped"",""stopped"",""stopped"",""stopped"",""stopped"",""stopped"",""down"",""down"",""down"",""down"",""down"",""down"",""down"",""down"",""down"",""down"",""down"",""down"",""down"",""down"",""down"",""down"",""down"",""down"",""down"",""down"",""down"",""down"",""down"",""down"",""down"",""down"",""stopped"",""stopped"",""stopped"",""stopped"",""left"",""left"",""left"",""left"",""left"",""left"",""left"",""left"",""left"",""left"",""left"",""left"",""left"",""left"",""left"",""left""]","[0,0,0,0,0,0,0,0,0,0,0,0,0,0,0,0,0,0,0,1,1,1,1,1,1,1,1,1,1,1,1,1,1,1,1,1,1,1,1,1,1,1,1,1,1,0,0,0,0,1,1,1,1,1,1,1,1,1,1,1,1,1,1,1,1]",392,-56,9,7055,1,0,1,0,1,0,48,0,48,0,1,47
