Browser,true_x_res,true_y_res,x_adjustment,y_adjustment,Params_TravelTime,Params_yOffset,Params_Reach,Params_ScreenWidth,Params_ScreenHeight,Params_Hz,Params_HzScale,Params_conf_linewidth,ExperimentStarted,params_consent,ConsentLoop.thisRepN,ConsentLoop.thisTrialN,ConsentLoop.thisN,ConsentLoop.thisIndex,ConsentLoop.ran,ConsentLoop.order,participant,Age,Gender,date,expName,psychopyVersion,OS,frameRate,PROLIFIC_PID,STUDY_ID,SESSION_ID,Demo_speedCond,Demo_delta,Demo_xposTarget,Demo_yposTarget,Demo_Delay,Demo_AvSpeed,Demo_Success,Demo_motion,Demo_Click,Demo_RTms,Demo_finalX,Demo_finalY,Trial_duration,BlockLoop.thisRepN,BlockLoop.thisTrialN,BlockLoop.thisN,BlockLoop.thisIndex,BlockLoop.ran,BlockLoop.order,DemoLoop.thisRepN,DemoLoop.thisTrialN,DemoLoop.thisN,DemoLoop.thisIndex,DemoLoop.ran,DemoLoop.order,Decision_Delta,Decision_xposTarget,Decision_yposTarget,Decision_SpeedCond,Decision_AvSpeed,Decision_delay,Decision_targetSide,Decision_placement,Decision_initplace,Decision_Driving,Decision_Click,Decision_RTms,Decision_finalX,Decision_finalY,Decision_success,DecisionTrialLoop.thisRepN,DecisionTrialLoop.thisTrialN,DecisionTrialLoop.thisN,DecisionTrialLoop.thisIndex,DecisionTrialLoop.ran,DecisionTrialLoop.order,Confidence_Delta,Confidence_resp,ConfidenceLoop.thisRepN,ConfidenceLoop.thisTrialN,ConfidenceLoop.thisN,ConfidenceLoop.thisIndex,ConfidenceLoop.ran,ConfidenceLoop.order,exp_duration
Chrome,1440,850,1,1,120,100,45,1200,600,60,1,300,7/28/20,Agreed,3,0,3,0,1,2,5df9ff4566247b000d5d9a72,23,female,2020-07-28_10h43.38.857,ProlificManual,3.2.2,Win32,60,5df9ff4566247b000d5d9a72,5f1f20d4c389060d55cb9bc4,5f1fe526b6b02a21f98e1457,,,,,,,,,,,,,,,,,,,,,,,,,,,,,,,,,,,,,,,,,,,,,,,,,,,,,,,
,,,,,,,,,,,,,,Agreed,3,0,3,0,1,2,5df9ff4566247b000d5d9a72,23,female,2020-07-28_10h43.38.857,ProlificManual,3.2.2,Win32,60,5df9ff4566247b000d5d9a72,5f1f20d4c389060d55cb9bc4,5f1fe526b6b02a21f98e1457,,,,,,,,,,,,,,,,,,,,,,,,,,,,,,,,,,,,,,,,,,,,,,,,,,,,,,,
,,,,,,,,,,,,,,Agreed,3,0,3,0,1,2,5df9ff4566247b000d5d9a72,23,female,2020-07-28_10h43.38.857,ProlificManual,3.2.2,Win32,60,5df9ff4566247b000d5d9a72,5f1f20d4c389060d55cb9bc4,5f1fe526b6b02a21f98e1457,,,,,,,,,,,,,,,,,,,,,,,,,,,,,,,,,,,,,,,,,,,,,,,,,,,,,,,
,,,,,,,,,,,,,,,,,,,,,5df9ff4566247b000d5d9a72,23,female,2020-07-28_10h43.38.857,ProlificManual,3.2.2,Win32,60,5df9ff4566247b000d5d9a72,5f1f20d4c389060d55cb9bc4,5f1fe526b6b02a21f98e1457,const,300,-200,0,82,3.5,1,"[""stopped"",""stopped"",""stopped"",""stopped"",""stopped"",""stopped"",""stopped"",""stopped"",""stopped"",""stopped"",""stopped"",""stopped"",""stopped"",""stopped"",""stopped"",""stopped"",""stopped"",""stopped"",""stopped"",""stopped"",""stopped"",""stopped"",""down"",""down"",""down"",""down"",""down"",""down"",""down"",""down"",""down"",""down"",""down"",""down"",""down"",""down"",""down"",""down"",""down"",""down"",""down"",""down"",""down"",""down"",""down"",""down"",""down"",""down"",""down"",""down"",""down"",""down"",""stopped"",""stopped"",""stopped"",""stopped"",""stopped"",""stopped"",""stopped"",""stopped"",""stopped"",""stopped"",""stopped"",""stopped"",""stopped"",""stopped"",""stopped"",""stopped"",""stopped"",""stopped"",""left"",""left"",""left"",""left"",""left"",""left"",""stopped"",""stopped"",""stopped"",""stopped"",""stopped"",""left"",""left"",""left"",""left"",""left"",""left"",""left"",""left"",""left"",""left"",""left"",""left"",""left"",""left"",""left"",""left"",""left"",""left"",""left"",""left"",""left"",""left"",""left"",""left"",""left"",""left"",""left"",""left"",""left"",""left"",""left"",""left"",""left"",""left"",""left"",""left"",""left"",""left"",""left""]","[0,0,0,0,0,0,0,0,0,0,0,0,0,0,0,0,0,0,0,0,0,0,1,1,1,1,1,1,1,1,1,1,1,1,1,1,1,1,1,1,1,1,1,1,1,1,1,1,1,1,1,1,0,0,0,0,0,0,0,0,0,0,0,0,0,0,0,0,0,0,1,1,1,1,1,1,0,0,0,0,0,1,1,1,1,1,1,1,1,1,1,1,1,1,1,1,1,1,1,1,1,1,1,1,1,1,1,1,1,1,1,1,1,1,1,1,1,1,1,1]",373,-157.5,-5,7617,1,0,1,0,1,0,48,0,48,0,1,47,,,,,,,,,,,,,,,,,,,,,,,,,,,,,,
,,,,,,,,,,,,,,,,,,,,,5df9ff4566247b000d5d9a72,23,female,2020-07-28_10h43.38.857,ProlificManual,3.2.2,Win32,60,5df9ff4566247b000d5d9a72,5f1f20d4c389060d55cb9bc4,5f1fe526b6b02a21f98e1457,,400,-300,0,112,3.5,0,"[""stopped"",""stopped"",""stopped"",""stopped"",""stopped"",""stopped"",""stopped"",""stopped"",""stopped"",""stopped"",""stopped"",""stopped"",""stopped"",""stopped"",""stopped"",""stopped"",""stopped"",""stopped"",""down"",""down"",""down"",""down"",""down"",""down"",""down"",""down"",""down"",""down"",""down"",""down"",""down"",""down"",""down"",""down"",""down"",""down"",""down"",""down"",""down"",""down"",""down"",""down"",""down"",""down"",""down"",""down"",""down"",""down"",""down"",""stopped"",""stopped"",""stopped"",""stopped"",""stopped"",""stopped"",""stopped"",""stopped"",""stopped"",""stopped"",""stopped"",""stopped"",""stopped"",""stopped"",""stopped"",""stopped"",""stopped"",""stopped"",""stopped"",""stopped"",""left"",""left"",""left"",""left"",""left"",""left"",""left"",""left"",""left"",""left"",""left"",""left"",""left"",""left"",""left"",""left"",""left"",""left"",""left"",""left"",""left"",""left"",""left"",""left"",""left"",""left"",""left"",""left"",""left"",""left"",""left"",""left"",""left"",""left"",""left"",""left"",""left"",""left"",""left"",""left"",""left"",""left"",""left"",""left"",""left"",""left"",""left"",""left"",""left"",""left"",""left"",""left""]","[0,0,0,0,0,0,0,0,0,0,0,0,0,0,0,0,0,0,1,1,1,1,1,1,1,1,1,1,1,1,1,1,1,1,1,1,1,1,1,1,1,1,1,1,1,1,1,1,1,0,0,0,0,0,0,0,0,0,0,0,0,0,0,0,0,0,0,0,0,1,1,1,1,1,1,1,1,1,1,1,1,1,1,1,1,1,1,1,1,1,1,1,1,1,1,1,1,1,1,1,1,1,1,1,1,1,1,1,1,1,1,1,1,1,1,1,1,1,1,1,1]",303,-182,-8.5,12459,1,0,1,0,1,0,48,0,48,0,1,47,,,,,,,,,,,,,,,,,,,,,,,,,,,,,,
,,,,,,,,,,,,,,,,,,,,,5df9ff4566247b000d5d9a72,23,female,2020-07-28_10h43.38.857,ProlificManual,3.2.2,Win32,60,5df9ff4566247b000d5d9a72,5f1f20d4c389060d55cb9bc4,5f1fe526b6b02a21f98e1457,,400,300,0,123,3.5,0,"[""stopped"",""stopped"",""stopped"",""stopped"",""stopped"",""stopped"",""stopped"",""stopped"",""stopped"",""stopped"",""stopped"",""stopped"",""stopped"",""stopped"",""stopped"",""stopped"",""stopped"",""down"",""down"",""down"",""down"",""down"",""down"",""down"",""down"",""down"",""down"",""down"",""down"",""down"",""down"",""down"",""down"",""down"",""down"",""down"",""down"",""down"",""down"",""down"",""down"",""down"",""down"",""down"",""down"",""stopped"",""stopped"",""stopped"",""stopped"",""stopped"",""stopped"",""stopped"",""stopped"",""stopped"",""stopped"",""stopped"",""stopped"",""stopped"",""stopped"",""stopped"",""stopped"",""stopped"",""stopped"",""stopped"",""stopped"",""stopped"",""stopped"",""stopped"",""stopped"",""stopped"",""right"",""right"",""right"",""right"",""right"",""right"",""right"",""stopped"",""stopped"",""stopped"",""stopped"",""stopped"",""right"",""right"",""right"",""right"",""right"",""right"",""right"",""right"",""right"",""right"",""right"",""right"",""right"",""right"",""right"",""right"",""right"",""right"",""right"",""right"",""right"",""right"",""right"",""right"",""right"",""right"",""right"",""right"",""right"",""right"",""right"",""right"",""right"",""right"",""right"",""right"",""right"",""right"",""right""]","[0,0,0,0,0,0,0,0,0,0,0,0,0,0,0,0,0,1,1,1,1,1,1,1,1,1,1,1,1,1,1,1,1,1,1,1,1,1,1,1,1,1,1,1,1,0,0,0,0,0,0,0,0,0,0,0,0,0,0,0,0,0,0,0,0,0,0,0,0,0,1,1,1,1,1,1,1,0,0,0,0,0,1,1,1,1,1,1,1,1,1,1,1,1,1,1,1,1,1,1,1,1,1,1,1,1,1,1,1,1,1,1,1,1,1,1,1,1,1,1,1]",283,161,2,8950,1,0,1,0,1,0,48,0,48,0,1,47,,,,,,,,,,,,,,,,,,,,,,,,,,,,,,
,,,,,,,,,,,,,,,,,,,,,5df9ff4566247b000d5d9a72,23,female,2020-07-28_10h43.38.857,ProlificManual,3.2.2,Win32,60,5df9ff4566247b000d5d9a72,5f1f20d4c389060d55cb9bc4,5f1fe526b6b02a21f98e1457,,500,400,0,106,3.5,0,"[""stopped"",""stopped"",""stopped"",""stopped"",""stopped"",""stopped"",""stopped"",""stopped"",""stopped"",""stopped"",""stopped"",""stopped"",""stopped"",""stopped"",""stopped"",""down"",""down"",""down"",""down"",""down"",""down"",""down"",""down"",""down"",""down"",""down"",""down"",""down"",""down"",""down"",""down"",""down"",""down"",""down"",""down"",""down"",""down"",""stopped"",""stopped"",""stopped"",""stopped"",""stopped"",""stopped"",""stopped"",""stopped"",""stopped"",""stopped"",""stopped"",""stopped"",""right"",""right"",""right"",""right"",""right"",""right"",""right"",""right"",""right"",""right"",""right"",""right"",""right"",""right"",""right"",""right"",""right"",""right"",""right"",""right"",""right"",""right"",""right"",""right"",""right"",""right"",""right"",""right"",""right"",""right"",""right"",""right"",""right"",""right"",""right"",""right"",""right"",""right"",""right"",""right"",""right"",""right"",""right"",""right"",""right"",""right"",""right"",""right"",""right"",""right"",""right"",""right"",""right"",""right"",""right"",""right"",""right"",""right"",""right"",""right"",""right"",""right"",""right"",""right"",""right"",""right"",""right"",""right"",""right"",""right"",""right"",""right""]","[0,0,0,0,0,0,0,0,0,0,0,0,0,0,0,1,1,1,1,1,1,1,1,1,1,1,1,1,1,1,1,1,1,1,1,1,1,0,0,0,0,0,0,0,0,0,0,0,0,1,1,1,1,1,1,1,1,1,1,1,1,1,1,1,1,1,1,1,1,1,1,1,1,1,1,1,1,1,1,1,1,1,1,1,1,1,1,1,1,1,1,1,1,1,1,1,1,1,1,1,1,1,1,1,1,1,1,1,1,1,1,1,1,1,1,1,1,1,1,1,1]",283,252,23,9024,1,0,1,0,1,0,48,0,48,0,1,47,,,,,,,,,,,,,,,,,,,,,,,,,,,,,,
,,,,,,,,,,,,,,,,,,,,,5df9ff4566247b000d5d9a72,23,female,2020-07-28_10h43.38.857,ProlificManual,3.2.2,Win32,60,5df9ff4566247b000d5d9a72,5f1f20d4c389060d55cb9bc4,5f1fe526b6b02a21f98e1457,,200,-100,0,140,3.5,1,"[""stopped"",""stopped"",""stopped"",""stopped"",""stopped"",""stopped"",""stopped"",""stopped"",""stopped"",""stopped"",""stopped"",""stopped"",""stopped"",""stopped"",""stopped"",""stopped"",""stopped"",""down"",""down"",""down"",""down"",""down"",""down"",""down"",""down"",""down"",""down"",""down"",""down"",""down"",""down"",""down"",""down"",""down"",""down"",""down"",""down"",""down"",""down"",""down"",""down"",""down"",""down"",""down"",""down"",""down"",""stopped"",""stopped"",""stopped"",""stopped"",""stopped"",""stopped"",""stopped"",""stopped"",""stopped"",""stopped"",""left"",""left"",""left"",""left"",""left"",""left"",""left"",""left"",""left"",""left"",""left"",""left"",""left"",""left"",""left"",""left""]","[0,0,0,0,0,0,0,0,0,0,0,0,0,0,0,0,0,1,1,1,1,1,1,1,1,1,1,1,1,1,1,1,1,1,1,1,1,1,1,1,1,1,1,1,1,1,0,0,0,0,0,0,0,0,0,0,1,1,1,1,1,1,1,1,1,1,1,1,1,1,1,1]",293,-56,-1.5,6250,1,0,1,0,1,0,48,0,48,0,1,47,,,,,,,,,,,,,,,,,,,,,,,,,,,,,,
,,,,,,,,,,,,,,,,,,,,,5df9ff4566247b000d5d9a72,23,female,2020-07-28_10h43.38.857,ProlificManual,3.2.2,Win32,60,5df9ff4566247b000d5d9a72,5f1f20d4c389060d55cb9bc4,5f1fe526b6b02a21f98e1457,,500,-400,0,133,3.5,0,"[""stopped"",""stopped"",""stopped"",""stopped"",""stopped"",""stopped"",""stopped"",""stopped"",""stopped"",""stopped"",""stopped"",""stopped"",""stopped"",""stopped"",""stopped"",""left"",""left"",""left"",""left"",""left"",""left"",""left"",""left"",""left"",""left"",""left"",""left"",""left"",""left"",""left"",""left"",""left"",""left"",""left"",""left"",""left"",""left"",""left"",""left"",""left"",""left"",""left"",""left"",""left"",""left"",""left"",""left"",""left"",""left"",""left"",""left"",""left"",""left"",""left"",""left"",""left"",""left"",""left"",""left"",""left"",""left"",""left"",""left"",""left"",""left"",""left"",""left"",""left"",""left"",""left"",""left"",""left"",""left"",""left"",""left"",""left"",""left"",""left"",""left"",""left"",""left"",""left"",""left"",""left"",""left"",""left"",""left"",""left"",""left"",""left"",""left"",""left"",""left"",""left"",""left"",""left"",""left"",""left"",""left"",""left"",""left"",""left"",""left"",""left"",""left"",""left"",""stopped"",""stopped"",""stopped"",""down"",""down"",""down"",""down"",""down"",""down"",""down"",""stopped"",""stopped"",""stopped"",""stopped"",""stopped""]","[0,0,0,0,0,0,0,0,0,0,0,0,0,0,0,1,1,1,1,1,1,1,1,1,1,1,1,1,1,1,1,1,1,1,1,1,1,1,1,1,1,1,1,1,1,1,1,1,1,1,1,1,1,1,1,1,1,1,1,1,1,1,1,1,1,1,1,1,1,1,1,1,1,1,1,1,1,1,1,1,1,1,1,1,1,1,1,1,1,1,1,1,1,1,1,1,1,1,1,1,1,1,1,1,1,1,0,0,0,1,1,1,1,1,1,1,0,0,0,0,0]",251,-318.5,75.5,6495,1,0,1,0,1,0,48,0,48,0,1,47,,,,,,,,,,,,,,,,,,,,,,,,,,,,,,
,,,,,,,,,,,,,,,,,,,,,5df9ff4566247b000d5d9a72,23,female,2020-07-28_10h43.38.857,ProlificManual,3.2.2,Win32,60,5df9ff4566247b000d5d9a72,5f1f20d4c389060d55cb9bc4,5f1fe526b6b02a21f98e1457,,500,400,0,79,3.5,0,"[""stopped"",""stopped"",""stopped"",""stopped"",""stopped"",""stopped"",""stopped"",""stopped"",""stopped"",""stopped"",""stopped"",""stopped"",""stopped"",""stopped"",""stopped"",""stopped"",""stopped"",""stopped"",""stopped"",""stopped"",""stopped"",""right"",""right"",""right"",""right"",""right"",""right"",""right"",""right"",""right"",""right"",""right"",""right"",""right"",""right"",""right"",""right"",""right"",""right"",""right"",""right"",""right"",""right"",""right"",""right"",""right"",""right"",""right"",""right"",""right"",""right"",""right"",""right"",""right"",""right"",""right"",""right"",""right"",""right"",""right"",""right"",""right"",""right"",""right"",""right"",""right"",""right"",""right"",""right"",""right"",""right"",""right"",""right"",""right"",""right"",""right"",""right"",""right"",""right"",""right"",""right"",""right"",""right"",""right"",""right"",""right"",""right"",""right"",""right"",""right"",""right"",""right"",""right"",""right"",""right"",""right"",""right"",""right"",""right"",""right"",""right"",""right"",""right"",""right"",""right"",""right"",""right"",""right"",""right"",""right"",""right"",""right"",""right"",""right"",""right"",""right"",""right"",""right"",""right"",""right"",""right""]","[0,0,0,0,0,0,0,0,0,0,0,0,0,0,0,0,0,0,0,0,0,1,1,1,1,1,1,1,1,1,1,1,1,1,1,1,1,1,1,1,1,1,1,1,1,1,1,1,1,1,1,1,1,1,1,1,1,1,1,1,1,1,1,1,1,1,1,1,1,1,1,1,1,1,1,1,1,1,1,1,1,1,1,1,1,1,1,1,1,1,1,1,1,1,1,1,1,1,1,1,1,1,1,1,1,1,1,1,1,1,1,1,1,1,1,1,1,1,1,1,1]",350,350,100,5559,1,0,1,0,1,0,48,0,48,0,1,47,,,,,,,,,,,,,,,,,,,,,,,,,,,,,,
,,,,,,,,,,,,,,,,,,,,,5df9ff4566247b000d5d9a72,23,female,2020-07-28_10h43.38.857,ProlificManual,3.2.2,Win32,60,5df9ff4566247b000d5d9a72,5f1f20d4c389060d55cb9bc4,5f1fe526b6b02a21f98e1457,,500,-400,0,71,3.5,0,"[""stopped"",""stopped"",""stopped"",""stopped"",""stopped"",""stopped"",""stopped"",""stopped"",""stopped"",""stopped"",""stopped"",""stopped"",""stopped"",""stopped"",""stopped"",""stopped"",""stopped"",""stopped"",""stopped"",""stopped"",""stopped"",""stopped"",""stopped"",""stopped"",""stopped"",""stopped"",""stopped"",""left"",""left"",""left"",""left"",""left"",""left"",""left"",""left"",""left"",""left"",""left"",""left"",""left"",""left"",""left"",""left"",""left"",""left"",""left"",""left"",""left"",""left"",""left"",""left"",""left"",""left"",""left"",""left"",""left"",""left"",""left"",""left"",""left"",""left"",""left"",""left"",""left"",""left"",""left"",""left"",""left"",""left"",""left"",""left"",""left"",""left"",""left"",""left"",""left"",""left"",""left"",""left"",""left"",""left"",""left"",""left"",""left"",""left"",""left"",""left"",""left"",""left"",""left"",""left"",""left"",""left"",""left"",""left"",""left"",""left"",""left"",""left"",""left"",""left"",""left"",""left"",""left"",""left"",""left"",""left"",""left"",""left"",""left"",""left"",""left"",""left"",""left"",""left"",""left"",""left"",""stopped"",""stopped"",""stopped"",""down""]","[0,0,0,0,0,0,0,0,0,0,0,0,0,0,0,0,0,0,0,0,0,0,0,0,0,0,0,1,1,1,1,1,1,1,1,1,1,1,1,1,1,1,1,1,1,1,1,1,1,1,1,1,1,1,1,1,1,1,1,1,1,1,1,1,1,1,1,1,1,1,1,1,1,1,1,1,1,1,1,1,1,1,1,1,1,1,1,1,1,1,1,1,1,1,1,1,1,1,1,1,1,1,1,1,1,1,1,1,1,1,1,1,1,1,1,1,1,0,0,0,1]",466,-315,96.5,6483,1,0,1,0,1,0,48,0,48,0,1,47,,,,,,,,,,,,,,,,,,,,,,,,,,,,,,
,,,,,,,,,,,,,,,,,,,,,5df9ff4566247b000d5d9a72,23,female,2020-07-28_10h43.38.857,ProlificManual,3.2.2,Win32,60,5df9ff4566247b000d5d9a72,5f1f20d4c389060d55cb9bc4,5f1fe526b6b02a21f98e1457,,400,-300,0,65,3.5,0,"[""stopped"",""stopped"",""stopped"",""stopped"",""stopped"",""stopped"",""stopped"",""stopped"",""stopped"",""stopped"",""stopped"",""stopped"",""stopped"",""stopped"",""stopped"",""stopped"",""stopped"",""left"",""left"",""left"",""left"",""left"",""left"",""left"",""left"",""left"",""left"",""left"",""left"",""left"",""left"",""left"",""left"",""left"",""left"",""left"",""left"",""left"",""left"",""left"",""left"",""left"",""left"",""left"",""left"",""left"",""left"",""left"",""left"",""left"",""left"",""left"",""left"",""left"",""left"",""left"",""left"",""left"",""left"",""left"",""left"",""left"",""left"",""left"",""left"",""left"",""left"",""left"",""left"",""left"",""left"",""left"",""left"",""left"",""left"",""left"",""left"",""left"",""left"",""left"",""left"",""left"",""left"",""left"",""left"",""left"",""left"",""left"",""left"",""left"",""stopped"",""stopped"",""stopped"",""stopped"",""stopped"",""stopped"",""stopped"",""stopped"",""stopped"",""stopped"",""stopped"",""stopped"",""stopped"",""down"",""down"",""down"",""down"",""down"",""down"",""down"",""down"",""down"",""down"",""down"",""down"",""down"",""down"",""down"",""down"",""down"",""down""]","[0,0,0,0,0,0,0,0,0,0,0,0,0,0,0,0,0,1,1,1,1,1,1,1,1,1,1,1,1,1,1,1,1,1,1,1,1,1,1,1,1,1,1,1,1,1,1,1,1,1,1,1,1,1,1,1,1,1,1,1,1,1,1,1,1,1,1,1,1,1,1,1,1,1,1,1,1,1,1,1,1,1,1,1,1,1,1,1,1,1,0,0,0,0,0,0,0,0,0,0,0,0,0,1,1,1,1,1,1,1,1,1,1,1,1,1,1,1,1,1,1]",295,-255.5,37,5766,1,0,1,0,1,0,48,0,48,0,1,47,,,,,,,,,,,,,,,,,,,,,,,,,,,,,,
,,,,,,,,,,,,,,,,,,,,,5df9ff4566247b000d5d9a72,23,female,2020-07-28_10h43.38.857,ProlificManual,3.2.2,Win32,60,5df9ff4566247b000d5d9a72,5f1f20d4c389060d55cb9bc4,5f1fe526b6b02a21f98e1457,,400,-300,0,94,3.5,1,"[""stopped"",""stopped"",""stopped"",""stopped"",""stopped"",""stopped"",""stopped"",""stopped"",""stopped"",""stopped"",""stopped"",""stopped"",""stopped"",""stopped"",""stopped"",""stopped"",""stopped"",""stopped"",""left"",""left"",""left"",""left"",""left"",""left"",""left"",""left"",""left"",""left"",""left"",""left"",""left"",""left"",""left"",""left"",""left"",""left"",""left"",""left"",""left"",""left"",""left"",""left"",""left"",""left"",""left"",""left"",""left"",""left"",""left"",""left"",""left"",""left"",""left"",""left"",""left"",""left"",""left"",""left"",""left"",""left"",""left"",""left"",""left"",""left"",""left"",""left"",""left"",""left"",""left"",""left"",""left"",""left"",""left"",""left"",""left"",""left"",""left"",""left"",""left"",""left"",""left"",""left"",""left"",""left"",""left"",""left"",""left"",""left"",""left"",""left"",""left"",""left"",""left"",""left"",""left"",""left"",""down"",""down"",""down"",""down"",""stopped"",""stopped"",""stopped"",""stopped"",""stopped"",""stopped"",""down"",""down"",""down"",""down"",""down"",""down"",""down"",""down"",""down"",""down"",""down"",""down"",""down"",""down"",""down""]","[0,0,0,0,0,0,0,0,0,0,0,0,0,0,0,0,0,0,1,1,1,1,1,1,1,1,1,1,1,1,1,1,1,1,1,1,1,1,1,1,1,1,1,1,1,1,1,1,1,1,1,1,1,1,1,1,1,1,1,1,1,1,1,1,1,1,1,1,1,1,1,1,1,1,1,1,1,1,1,1,1,1,1,1,1,1,1,1,1,1,1,1,1,1,1,1,1,1,1,1,0,0,0,0,0,0,1,1,1,1,1,1,1,1,1,1,1,1,1,1,1]",300,-273,33.5,6683,1,0,1,0,1,0,48,0,48,0,1,47,,,,,,,,,,,,,,,,,,,,,,,,,,,,,,
,,,,,,,,,,,,,,,,,,,,,5df9ff4566247b000d5d9a72,23,female,2020-07-28_10h43.38.857,ProlificManual,3.2.2,Win32,60,5df9ff4566247b000d5d9a72,5f1f20d4c389060d55cb9bc4,5f1fe526b6b02a21f98e1457,,200,100,0,143,3.5,1,"[""stopped"",""stopped"",""stopped"",""stopped"",""stopped"",""stopped"",""stopped"",""stopped"",""stopped"",""stopped"",""stopped"",""stopped"",""stopped"",""stopped"",""stopped"",""stopped"",""stopped"",""down"",""down"",""down"",""down"",""down"",""down"",""down"",""down"",""down"",""down"",""down"",""down"",""down"",""down"",""down"",""down"",""down"",""down"",""down"",""down"",""down"",""down"",""down"",""down"",""down"",""down"",""down"",""down"",""down"",""down"",""down"",""down"",""down"",""stopped"",""stopped"",""stopped"",""stopped"",""stopped"",""stopped"",""stopped"",""stopped"",""stopped"",""stopped"",""stopped"",""right"",""right"",""right"",""right"",""right"",""right"",""right"",""right"",""right"",""right"",""right"",""right"",""right"",""right"",""right"",""right"",""right""]","[0,0,0,0,0,0,0,0,0,0,0,0,0,0,0,0,0,1,1,1,1,1,1,1,1,1,1,1,1,1,1,1,1,1,1,1,1,1,1,1,1,1,1,1,1,1,1,1,1,1,0,0,0,0,0,0,0,0,0,0,0,1,1,1,1,1,1,1,1,1,1,1,1,1,1,1,1,1]",283,59.5,-15.5,5306,1,0,1,0,1,0,48,0,48,0,1,47,,,,,,,,,,,,,,,,,,,,,,,,,,,,,,
,,,,,,,,,,,,,,,,,,,,,5df9ff4566247b000d5d9a72,23,female,2020-07-28_10h43.38.857,ProlificManual,3.2.2,Win32,60,5df9ff4566247b000d5d9a72,5f1f20d4c389060d55cb9bc4,5f1fe526b6b02a21f98e1457,,500,-400,0,137,3.5,0,"[""stopped"",""stopped"",""stopped"",""stopped"",""stopped"",""stopped"",""stopped"",""stopped"",""stopped"",""stopped"",""stopped"",""stopped"",""stopped"",""stopped"",""stopped"",""stopped"",""left"",""left"",""left"",""left"",""left"",""left"",""left"",""left"",""left"",""left"",""left"",""left"",""left"",""left"",""left"",""left"",""left"",""left"",""left"",""left"",""left"",""left"",""left"",""left"",""left"",""left"",""left"",""left"",""left"",""left"",""left"",""left"",""left"",""left"",""left"",""left"",""left"",""left"",""left"",""left"",""left"",""left"",""left"",""left"",""left"",""left"",""left"",""left"",""left"",""left"",""left"",""left"",""left"",""left"",""left"",""left"",""left"",""left"",""left"",""left"",""left"",""left"",""left"",""left"",""left"",""left"",""left"",""left"",""left"",""left"",""left"",""left"",""left"",""left"",""left"",""left"",""left"",""left"",""left"",""left"",""left"",""left"",""left"",""left"",""left"",""left"",""left"",""left"",""left"",""left"",""left"",""left"",""left"",""left"",""left"",""left"",""left"",""left"",""left"",""left"",""stopped"",""down"",""stopped"",""stopped"",""stopped""]","[0,0,0,0,0,0,0,0,0,0,0,0,0,0,0,0,1,1,1,1,1,1,1,1,1,1,1,1,1,1,1,1,1,1,1,1,1,1,1,1,1,1,1,1,1,1,1,1,1,1,1,1,1,1,1,1,1,1,1,1,1,1,1,1,1,1,1,1,1,1,1,1,1,1,1,1,1,1,1,1,1,1,1,1,1,1,1,1,1,1,1,1,1,1,1,1,1,1,1,1,1,1,1,1,1,1,1,1,1,1,1,1,1,1,1,1,0,1,0,0,0]",266,-350,96.5,8878,1,0,1,0,1,0,48,0,48,0,1,47,,,,,,,,,,,,,,,,,,,,,,,,,,,,,,
,,,,,,,,,,,,,,,,,,,,,5df9ff4566247b000d5d9a72,23,female,2020-07-28_10h43.38.857,ProlificManual,3.2.2,Win32,60,5df9ff4566247b000d5d9a72,5f1f20d4c389060d55cb9bc4,5f1fe526b6b02a21f98e1457,,500,-400,0,134,3.5,0,"[""stopped"",""stopped"",""stopped"",""stopped"",""stopped"",""stopped"",""stopped"",""stopped"",""stopped"",""stopped"",""stopped"",""stopped"",""stopped"",""stopped"",""stopped"",""stopped"",""stopped"",""left"",""left"",""left"",""left"",""left"",""left"",""left"",""left"",""left"",""left"",""left"",""left"",""left"",""left"",""left"",""left"",""left"",""left"",""left"",""left"",""left"",""left"",""left"",""left"",""left"",""left"",""left"",""left"",""left"",""left"",""left"",""left"",""left"",""left"",""left"",""left"",""left"",""left"",""left"",""left"",""left"",""left"",""left"",""left"",""left"",""left"",""left"",""left"",""left"",""left"",""left"",""left"",""left"",""left"",""left"",""left"",""left"",""left"",""left"",""left"",""left"",""left"",""left"",""left"",""left"",""left"",""left"",""left"",""left"",""left"",""left"",""left"",""left"",""left"",""left"",""left"",""left"",""left"",""left"",""left"",""left"",""stopped"",""stopped"",""down"",""down"",""down"",""down"",""down"",""down"",""down"",""down"",""down"",""down"",""stopped"",""stopped"",""stopped"",""stopped"",""stopped"",""down"",""down"",""down"",""down"",""down"",""down""]","[0,0,0,0,0,0,0,0,0,0,0,0,0,0,0,0,0,1,1,1,1,1,1,1,1,1,1,1,1,1,1,1,1,1,1,1,1,1,1,1,1,1,1,1,1,1,1,1,1,1,1,1,1,1,1,1,1,1,1,1,1,1,1,1,1,1,1,1,1,1,1,1,1,1,1,1,1,1,1,1,1,1,1,1,1,1,1,1,1,1,1,1,1,1,1,1,1,1,0,0,1,1,1,1,1,1,1,1,1,1,0,0,0,0,0,1,1,1,1,1,1]",283,-283.5,44,6550,1,0,1,0,1,0,48,0,48,0,1,47,,,,,,,,,,,,,,,,,,,,,,,,,,,,,,
,,,,,,,,,,,,,,,,,,,,,5df9ff4566247b000d5d9a72,23,female,2020-07-28_10h43.38.857,ProlificManual,3.2.2,Win32,60,5df9ff4566247b000d5d9a72,5f1f20d4c389060d55cb9bc4,5f1fe526b6b02a21f98e1457,,400,-300,0,120,3.5,0,"[""stopped"",""stopped"",""stopped"",""stopped"",""stopped"",""stopped"",""stopped"",""stopped"",""stopped"",""stopped"",""stopped"",""stopped"",""stopped"",""stopped"",""stopped"",""stopped"",""left"",""left"",""left"",""left"",""left"",""left"",""left"",""left"",""left"",""left"",""left"",""left"",""left"",""left"",""left"",""left"",""left"",""left"",""left"",""left"",""left"",""left"",""left"",""left"",""left"",""left"",""left"",""left"",""left"",""left"",""left"",""left"",""left"",""left"",""left"",""left"",""left"",""left"",""left"",""left"",""left"",""left"",""left"",""left"",""left"",""left"",""left"",""left"",""left"",""left"",""left"",""left"",""left"",""left"",""left"",""left"",""left"",""left"",""left"",""left"",""left"",""left"",""left"",""left"",""left"",""left"",""left"",""left"",""left"",""stopped"",""stopped"",""down"",""down"",""down"",""down"",""down"",""down"",""down"",""stopped"",""stopped"",""stopped"",""stopped"",""stopped"",""down"",""down"",""down"",""down"",""down"",""down"",""down"",""down"",""down"",""down"",""down"",""down"",""down"",""down"",""down"",""down"",""down"",""down"",""down"",""down"",""down"",""down""]","[0,0,0,0,0,0,0,0,0,0,0,0,0,0,0,0,1,1,1,1,1,1,1,1,1,1,1,1,1,1,1,1,1,1,1,1,1,1,1,1,1,1,1,1,1,1,1,1,1,1,1,1,1,1,1,1,1,1,1,1,1,1,1,1,1,1,1,1,1,1,1,1,1,1,1,1,1,1,1,1,1,1,1,1,1,0,0,1,1,1,1,1,1,1,0,0,0,0,0,1,1,1,1,1,1,1,1,1,1,1,1,1,1,1,1,1,1,1,1,1,1]",267,-241.5,-1.5,7600,1,0,1,0,1,0,48,0,48,0,1,47,,,,,,,,,,,,,,,,,,,,,,,,,,,,,,
,,,,,,,,,,,,,,,,,,,,,5df9ff4566247b000d5d9a72,23,female,2020-07-28_10h43.38.857,ProlificManual,3.2.2,Win32,60,5df9ff4566247b000d5d9a72,5f1f20d4c389060d55cb9bc4,5f1fe526b6b02a21f98e1457,,400,300,0,118,3.5,0,"[""stopped"",""stopped"",""stopped"",""stopped"",""stopped"",""stopped"",""stopped"",""stopped"",""stopped"",""stopped"",""stopped"",""stopped"",""stopped"",""stopped"",""right"",""right"",""right"",""right"",""right"",""right"",""right"",""right"",""right"",""right"",""right"",""right"",""right"",""right"",""right"",""right"",""right"",""right"",""right"",""right"",""right"",""right"",""right"",""right"",""right"",""right"",""right"",""right"",""right"",""right"",""right"",""right"",""right"",""right"",""right"",""right"",""right"",""right"",""right"",""right"",""right"",""right"",""right"",""right"",""right"",""right"",""right"",""right"",""right"",""right"",""right"",""right"",""right"",""right"",""right"",""right"",""right"",""right"",""right"",""right"",""right"",""right"",""right"",""right"",""right"",""right"",""right"",""right"",""right"",""right"",""right"",""right"",""right"",""right"",""stopped"",""stopped"",""stopped"",""stopped"",""stopped"",""stopped"",""stopped"",""stopped"",""stopped"",""stopped"",""stopped"",""stopped"",""stopped"",""stopped"",""stopped"",""down"",""down"",""down"",""down"",""down"",""down"",""down"",""down"",""down"",""down"",""down"",""down"",""down"",""down"",""down"",""down"",""down"",""down""]","[0,0,0,0,0,0,0,0,0,0,0,0,0,0,1,1,1,1,1,1,1,1,1,1,1,1,1,1,1,1,1,1,1,1,1,1,1,1,1,1,1,1,1,1,1,1,1,1,1,1,1,1,1,1,1,1,1,1,1,1,1,1,1,1,1,1,1,1,1,1,1,1,1,1,1,1,1,1,1,1,1,1,1,1,1,1,1,1,0,0,0,0,0,0,0,0,0,0,0,0,0,0,0,1,1,1,1,1,1,1,1,1,1,1,1,1,1,1,1,1,1]",234,259,37,6425,1,0,1,0,1,0,48,0,48,0,1,47,,,,,,,,,,,,,,,,,,,,,,,,,,,,,,
,,,,,,,,,,,,,,,,,,,,,5df9ff4566247b000d5d9a72,23,female,2020-07-28_10h43.38.857,ProlificManual,3.2.2,Win32,60,5df9ff4566247b000d5d9a72,5f1f20d4c389060d55cb9bc4,5f1fe526b6b02a21f98e1457,,300,200,0,135,3.5,1,"[""stopped"",""stopped"",""stopped"",""stopped"",""stopped"",""stopped"",""stopped"",""stopped"",""stopped"",""stopped"",""stopped"",""stopped"",""stopped"",""stopped"",""stopped"",""down"",""down"",""down"",""down"",""down"",""down"",""down"",""down"",""down"",""down"",""down"",""down"",""down"",""down"",""down"",""down"",""down"",""down"",""down"",""down"",""down"",""down"",""down"",""down"",""down"",""down"",""down"",""down"",""down"",""down"",""down"",""stopped"",""stopped"",""stopped"",""stopped"",""stopped"",""stopped"",""stopped"",""stopped"",""stopped"",""stopped"",""stopped"",""right"",""right"",""right"",""right"",""right"",""right"",""right"",""right"",""right"",""right"",""right"",""right"",""right"",""right"",""right"",""right"",""right"",""right"",""right"",""right"",""right"",""right"",""right"",""right"",""right"",""right"",""right"",""right"",""right"",""right"",""right"",""right"",""right"",""right"",""right"",""right"",""right"",""right"",""right"",""right"",""right"",""right"",""right"",""right"",""right""]","[0,0,0,0,0,0,0,0,0,0,0,0,0,0,0,1,1,1,1,1,1,1,1,1,1,1,1,1,1,1,1,1,1,1,1,1,1,1,1,1,1,1,1,1,1,1,0,0,0,0,0,0,0,0,0,0,0,1,1,1,1,1,1,1,1,1,1,1,1,1,1,1,1,1,1,1,1,1,1,1,1,1,1,1,1,1,1,1,1,1,1,1,1,1,1,1,1,1,1,1,1,1]",248,157.5,-8.5,5200,1,0,1,0,1,0,48,0,48,0,1,47,,,,,,,,,,,,,,,,,,,,,,,,,,,,,,
,,,,,,,,,,,,,,,,,,,,,5df9ff4566247b000d5d9a72,23,female,2020-07-28_10h43.38.857,ProlificManual,3.2.2,Win32,60,5df9ff4566247b000d5d9a72,5f1f20d4c389060d55cb9bc4,5f1fe526b6b02a21f98e1457,,200,-100,0,63,3.5,1,"[""stopped"",""stopped"",""stopped"",""stopped"",""stopped"",""stopped"",""stopped"",""stopped"",""stopped"",""stopped"",""stopped"",""stopped"",""stopped"",""stopped"",""stopped"",""stopped"",""stopped"",""stopped"",""down"",""down"",""down"",""down"",""down"",""down"",""down"",""down"",""down"",""down"",""down"",""down"",""down"",""down"",""down"",""down"",""down"",""down"",""down"",""down"",""down"",""down"",""down"",""down"",""down"",""down"",""down"",""down"",""down"",""stopped"",""stopped"",""stopped"",""stopped"",""stopped"",""stopped"",""stopped"",""stopped"",""stopped"",""stopped"",""stopped"",""stopped"",""left"",""left"",""left"",""left"",""left"",""left"",""left"",""left"",""left"",""left"",""left"",""left"",""left"",""left"",""left"",""left""]","[0,0,0,0,0,0,0,0,0,0,0,0,0,0,0,0,0,0,1,1,1,1,1,1,1,1,1,1,1,1,1,1,1,1,1,1,1,1,1,1,1,1,1,1,1,1,1,0,0,0,0,0,0,0,0,0,0,0,0,1,1,1,1,1,1,1,1,1,1,1,1,1,1,1,1]",310,-56,-1.5,3567,1,0,1,0,1,0,48,0,48,0,1,47,,,,,,,,,,,,,,,,,,,,,,,,,,,,,,
,,,,,,,,,,,,,,,,,,,,,5df9ff4566247b000d5d9a72,23,female,2020-07-28_10h43.38.857,ProlificManual,3.2.2,Win32,60,5df9ff4566247b000d5d9a72,5f1f20d4c389060d55cb9bc4,5f1fe526b6b02a21f98e1457,,300,-200,0,95,3.5,1,"[""stopped"",""stopped"",""stopped"",""stopped"",""stopped"",""stopped"",""stopped"",""stopped"",""stopped"",""stopped"",""stopped"",""stopped"",""stopped"",""stopped"",""stopped"",""stopped"",""stopped"",""down"",""down"",""down"",""down"",""down"",""down"",""down"",""down"",""down"",""down"",""down"",""down"",""down"",""down"",""down"",""down"",""down"",""down"",""down"",""down"",""down"",""down"",""down"",""down"",""down"",""down"",""down"",""down"",""down"",""down"",""stopped"",""stopped"",""stopped"",""stopped"",""stopped"",""stopped"",""stopped"",""stopped"",""stopped"",""stopped"",""stopped"",""stopped"",""stopped"",""stopped"",""stopped"",""stopped"",""stopped"",""stopped"",""stopped"",""stopped"",""left"",""left"",""left"",""left"",""left"",""left"",""left"",""left"",""left"",""stopped"",""stopped"",""stopped"",""stopped"",""stopped"",""left"",""left"",""left"",""left"",""left"",""left"",""left"",""left"",""left"",""left"",""left"",""left"",""left"",""left"",""left"",""left"",""left"",""left"",""left"",""left"",""left"",""left"",""left"",""left"",""left"",""left"",""left"",""left"",""left"",""left"",""left"",""left"",""left"",""left"",""left"",""left""]","[0,0,0,0,0,0,0,0,0,0,0,0,0,0,0,0,0,1,1,1,1,1,1,1,1,1,1,1,1,1,1,1,1,1,1,1,1,1,1,1,1,1,1,1,1,1,1,0,0,0,0,0,0,0,0,0,0,0,0,0,0,0,0,0,0,0,0,1,1,1,1,1,1,1,1,1,0,0,0,0,0,1,1,1,1,1,1,1,1,1,1,1,1,1,1,1,1,1,1,1,1,1,1,1,1,1,1,1,1,1,1,1,1,1,1,1,1]",281,-157.5,-5,5317,1,0,1,0,1,0,48,0,48,0,1,47,,,,,,,,,,,,,,,,,,,,,,,,,,,,,,
,,,,,,,,,,,,,,,,,,,,,5df9ff4566247b000d5d9a72,23,female,2020-07-28_10h43.38.857,ProlificManual,3.2.2,Win32,60,5df9ff4566247b000d5d9a72,5f1f20d4c389060d55cb9bc4,5f1fe526b6b02a21f98e1457,,300,-200,0,113,3.5,1,"[""stopped"",""stopped"",""stopped"",""stopped"",""stopped"",""stopped"",""stopped"",""stopped"",""stopped"",""stopped"",""stopped"",""stopped"",""stopped"",""stopped"",""down"",""down"",""down"",""down"",""down"",""down"",""down"",""down"",""down"",""down"",""down"",""down"",""down"",""down"",""down"",""down"",""down"",""down"",""down"",""down"",""down"",""down"",""down"",""down"",""down"",""down"",""down"",""down"",""down"",""down"",""stopped"",""stopped"",""stopped"",""stopped"",""stopped"",""stopped"",""stopped"",""stopped"",""stopped"",""stopped"",""left"",""left"",""left"",""left"",""left"",""left"",""left"",""left"",""left"",""left"",""left"",""left"",""left"",""left"",""left"",""left"",""left"",""left"",""left"",""left"",""left"",""left"",""left"",""left"",""left"",""left"",""left"",""left"",""left"",""left"",""left"",""left"",""left"",""left"",""left"",""left"",""left"",""left"",""left"",""left"",""left"",""left"",""left"",""left"",""left""]","[0,0,0,0,0,0,0,0,0,0,0,0,0,0,1,1,1,1,1,1,1,1,1,1,1,1,1,1,1,1,1,1,1,1,1,1,1,1,1,1,1,1,1,1,0,0,0,0,0,0,0,0,0,0,1,1,1,1,1,1,1,1,1,1,1,1,1,1,1,1,1,1,1,1,1,1,1,1,1,1,1,1,1,1,1,1,1,1,1,1,1,1,1,1,1,1,1,1,1]",232,-157.5,-5,5389,1,0,1,0,1,0,48,0,48,0,1,47,,,,,,,,,,,,,,,,,,,,,,,,,,,,,,
,,,,,,,,,,,,,,,,,,,,,5df9ff4566247b000d5d9a72,23,female,2020-07-28_10h43.38.857,ProlificManual,3.2.2,Win32,60,5df9ff4566247b000d5d9a72,5f1f20d4c389060d55cb9bc4,5f1fe526b6b02a21f98e1457,,300,200,0,134,3.5,1,"[""stopped"",""stopped"",""stopped"",""stopped"",""stopped"",""stopped"",""stopped"",""stopped"",""stopped"",""stopped"",""stopped"",""stopped"",""stopped"",""stopped"",""stopped"",""stopped"",""stopped"",""down"",""down"",""down"",""down"",""down"",""down"",""down"",""down"",""down"",""down"",""down"",""down"",""down"",""down"",""down"",""down"",""down"",""down"",""down"",""down"",""down"",""down"",""down"",""down"",""down"",""down"",""down"",""down"",""down"",""down"",""stopped"",""stopped"",""stopped"",""stopped"",""stopped"",""stopped"",""stopped"",""stopped"",""stopped"",""stopped"",""stopped"",""stopped"",""stopped"",""stopped"",""right"",""right"",""right"",""right"",""right"",""right"",""right"",""right"",""right"",""right"",""right"",""right"",""right"",""right"",""right"",""right"",""right"",""right"",""right"",""right"",""right"",""right"",""right"",""right"",""right"",""right"",""right"",""right"",""right"",""right"",""right"",""right"",""right"",""right"",""right"",""right"",""right"",""right"",""right"",""right"",""right"",""right"",""right"",""right"",""right""]","[0,0,0,0,0,0,0,0,0,0,0,0,0,0,0,0,0,1,1,1,1,1,1,1,1,1,1,1,1,1,1,1,1,1,1,1,1,1,1,1,1,1,1,1,1,1,1,0,0,0,0,0,0,0,0,0,0,0,0,0,0,1,1,1,1,1,1,1,1,1,1,1,1,1,1,1,1,1,1,1,1,1,1,1,1,1,1,1,1,1,1,1,1,1,1,1,1,1,1,1,1,1,1,1,1,1]",283,157.5,-5,6217,1,0,1,0,1,0,48,0,48,0,1,47,,,,,,,,,,,,,,,,,,,,,,,,,,,,,,
,,,,,,,,,,,,,,,,,,,,,5df9ff4566247b000d5d9a72,23,female,2020-07-28_10h43.38.857,ProlificManual,3.2.2,Win32,60,5df9ff4566247b000d5d9a72,5f1f20d4c389060d55cb9bc4,5f1fe526b6b02a21f98e1457,,500,400,0,124,3.5,0,"[""stopped"",""stopped"",""stopped"",""stopped"",""stopped"",""stopped"",""stopped"",""stopped"",""stopped"",""stopped"",""stopped"",""stopped"",""stopped"",""stopped"",""stopped"",""stopped"",""right"",""right"",""right"",""right"",""right"",""right"",""right"",""right"",""right"",""right"",""right"",""right"",""right"",""right"",""right"",""right"",""right"",""right"",""right"",""right"",""right"",""right"",""right"",""right"",""right"",""right"",""right"",""right"",""right"",""right"",""right"",""right"",""right"",""right"",""right"",""right"",""right"",""right"",""right"",""right"",""right"",""right"",""right"",""right"",""right"",""right"",""right"",""right"",""right"",""right"",""right"",""right"",""right"",""right"",""right"",""right"",""right"",""right"",""right"",""right"",""right"",""right"",""right"",""right"",""right"",""right"",""right"",""right"",""right"",""right"",""right"",""right"",""right"",""right"",""right"",""right"",""right"",""right"",""right"",""right"",""right"",""right"",""right"",""right"",""right"",""right"",""right"",""right"",""right"",""right"",""right"",""right"",""right"",""right"",""right"",""right"",""right"",""right"",""right"",""right"",""right"",""right"",""right"",""right"",""stopped""]","[0,0,0,0,0,0,0,0,0,0,0,0,0,0,0,0,1,1,1,1,1,1,1,1,1,1,1,1,1,1,1,1,1,1,1,1,1,1,1,1,1,1,1,1,1,1,1,1,1,1,1,1,1,1,1,1,1,1,1,1,1,1,1,1,1,1,1,1,1,1,1,1,1,1,1,1,1,1,1,1,1,1,1,1,1,1,1,1,1,1,1,1,1,1,1,1,1,1,1,1,1,1,1,1,1,1,1,1,1,1,1,1,1,1,1,1,1,1,1,1,0]",267,364,100,5566,1,0,1,0,1,0,48,0,48,0,1,47,,,,,,,,,,,,,,,,,,,,,,,,,,,,,,
,,,,,,,,,,,,,,,,,,,,,5df9ff4566247b000d5d9a72,23,female,2020-07-28_10h43.38.857,ProlificManual,3.2.2,Win32,60,5df9ff4566247b000d5d9a72,5f1f20d4c389060d55cb9bc4,5f1fe526b6b02a21f98e1457,,400,-300,0,62,3.5,0,"[""stopped"",""stopped"",""stopped"",""stopped"",""stopped"",""stopped"",""stopped"",""stopped"",""stopped"",""stopped"",""stopped"",""stopped"",""stopped"",""stopped"",""stopped"",""stopped"",""stopped"",""stopped"",""left"",""left"",""left"",""left"",""left"",""left"",""left"",""left"",""left"",""left"",""left"",""left"",""left"",""left"",""left"",""left"",""left"",""left"",""left"",""left"",""left"",""left"",""left"",""left"",""left"",""left"",""left"",""left"",""left"",""left"",""left"",""left"",""left"",""left"",""left"",""left"",""left"",""left"",""left"",""left"",""left"",""left"",""left"",""left"",""left"",""left"",""left"",""left"",""left"",""left"",""left"",""left"",""left"",""left"",""left"",""left"",""left"",""left"",""left"",""left"",""left"",""left"",""left"",""left"",""left"",""left"",""left"",""left"",""left"",""left"",""left"",""left"",""left"",""left"",""left"",""left"",""stopped"",""stopped"",""stopped"",""stopped"",""stopped"",""stopped"",""down"",""down"",""down"",""down"",""down"",""stopped"",""stopped"",""stopped"",""stopped"",""stopped"",""stopped"",""down"",""down"",""down"",""down"",""down"",""down"",""down"",""down"",""down"",""down""]","[0,0,0,0,0,0,0,0,0,0,0,0,0,0,0,0,0,0,1,1,1,1,1,1,1,1,1,1,1,1,1,1,1,1,1,1,1,1,1,1,1,1,1,1,1,1,1,1,1,1,1,1,1,1,1,1,1,1,1,1,1,1,1,1,1,1,1,1,1,1,1,1,1,1,1,1,1,1,1,1,1,1,1,1,1,1,1,1,1,1,1,1,1,1,0,0,0,0,0,0,1,1,1,1,1,0,0,0,0,0,0,1,1,1,1,1,1,1,1,1,1]",302,-266,47.5,4968,1,0,1,0,1,0,48,0,48,0,1,47,,,,,,,,,,,,,,,,,,,,,,,,,,,,,,
,,,,,,,,,,,,,,,,,,,,,5df9ff4566247b000d5d9a72,23,female,2020-07-28_10h43.38.857,ProlificManual,3.2.2,Win32,60,5df9ff4566247b000d5d9a72,5f1f20d4c389060d55cb9bc4,5f1fe526b6b02a21f98e1457,,500,-400,0,65,3.5,0,"[""stopped"",""stopped"",""stopped"",""stopped"",""stopped"",""stopped"",""stopped"",""stopped"",""stopped"",""stopped"",""stopped"",""stopped"",""stopped"",""stopped"",""stopped"",""stopped"",""stopped"",""stopped"",""stopped"",""stopped"",""stopped"",""left"",""left"",""left"",""left"",""left"",""left"",""left"",""left"",""left"",""left"",""left"",""left"",""left"",""left"",""left"",""left"",""left"",""left"",""left"",""left"",""left"",""left"",""left"",""left"",""left"",""left"",""left"",""left"",""left"",""left"",""left"",""left"",""left"",""left"",""left"",""left"",""left"",""left"",""left"",""left"",""left"",""left"",""left"",""left"",""left"",""left"",""left"",""left"",""left"",""left"",""left"",""left"",""left"",""left"",""left"",""left"",""left"",""left"",""left"",""left"",""left"",""left"",""left"",""left"",""left"",""left"",""left"",""left"",""left"",""left"",""left"",""left"",""left"",""left"",""left"",""left"",""left"",""left"",""left"",""left"",""left"",""left"",""left"",""left"",""left"",""left"",""left"",""left"",""left"",""left"",""left"",""left"",""left"",""left"",""left"",""left"",""left"",""left"",""left"",""left""]","[0,0,0,0,0,0,0,0,0,0,0,0,0,0,0,0,0,0,0,0,0,1,1,1,1,1,1,1,1,1,1,1,1,1,1,1,1,1,1,1,1,1,1,1,1,1,1,1,1,1,1,1,1,1,1,1,1,1,1,1,1,1,1,1,1,1,1,1,1,1,1,1,1,1,1,1,1,1,1,1,1,1,1,1,1,1,1,1,1,1,1,1,1,1,1,1,1,1,1,1,1,1,1,1,1,1,1,1,1,1,1,1,1,1,1,1,1,1,1,1,1]",361,-350,100,4184,1,0,1,0,1,0,48,0,48,0,1,47,,,,,,,,,,,,,,,,,,,,,,,,,,,,,,
,,,,,,,,,,,,,,,,,,,,,5df9ff4566247b000d5d9a72,23,female,2020-07-28_10h43.38.857,ProlificManual,3.2.2,Win32,60,5df9ff4566247b000d5d9a72,5f1f20d4c389060d55cb9bc4,5f1fe526b6b02a21f98e1457,,200,100,0,88,3.5,1,"[""stopped"",""stopped"",""stopped"",""stopped"",""stopped"",""stopped"",""stopped"",""stopped"",""stopped"",""stopped"",""stopped"",""stopped"",""stopped"",""stopped"",""stopped"",""stopped"",""down"",""down"",""down"",""down"",""down"",""down"",""down"",""down"",""down"",""down"",""down"",""down"",""down"",""down"",""down"",""down"",""down"",""down"",""down"",""down"",""down"",""down"",""down"",""down"",""down"",""down"",""stopped"",""stopped"",""stopped"",""stopped"",""stopped"",""stopped"",""stopped"",""stopped"",""stopped"",""stopped"",""stopped"",""stopped"",""stopped"",""stopped"",""stopped"",""stopped"",""stopped"",""right"",""right"",""right"",""right"",""right"",""right"",""right"",""right"",""right"",""right"",""stopped"",""stopped"",""stopped"",""stopped"",""stopped"",""stopped"",""stopped"",""stopped"",""right"",""right"",""right"",""right"",""right"",""right""]","[0,0,0,0,0,0,0,0,0,0,0,0,0,0,0,0,1,1,1,1,1,1,1,1,1,1,1,1,1,1,1,1,1,1,1,1,1,1,1,1,1,1,0,0,0,0,0,0,0,0,0,0,0,0,0,0,0,0,0,1,1,1,1,1,1,1,1,1,1,0,0,0,0,0,0,0,0,1,1,1,1,1,1]",266,56,9,4066,1,0,1,0,1,0,48,0,48,0,1,47,,,,,,,,,,,,,,,,,,,,,,,,,,,,,,
,,,,,,,,,,,,,,,,,,,,,5df9ff4566247b000d5d9a72,23,female,2020-07-28_10h43.38.857,ProlificManual,3.2.2,Win32,60,5df9ff4566247b000d5d9a72,5f1f20d4c389060d55cb9bc4,5f1fe526b6b02a21f98e1457,,300,-200,0,129,3.5,1,"[""stopped"",""stopped"",""stopped"",""stopped"",""stopped"",""stopped"",""stopped"",""stopped"",""stopped"",""stopped"",""stopped"",""stopped"",""stopped"",""stopped"",""stopped"",""stopped"",""stopped"",""left"",""left"",""left"",""left"",""left"",""left"",""left"",""left"",""left"",""left"",""left"",""left"",""left"",""left"",""left"",""left"",""left"",""left"",""left"",""left"",""left"",""left"",""left"",""left"",""left"",""left"",""left"",""left"",""left"",""left"",""left"",""left"",""left"",""left"",""left"",""left"",""left"",""left"",""left"",""left"",""left"",""left"",""left"",""left"",""left"",""stopped"",""stopped"",""stopped"",""stopped"",""stopped"",""stopped"",""stopped"",""stopped"",""stopped"",""stopped"",""stopped"",""down"",""down"",""down"",""down"",""down"",""down"",""down"",""down"",""down"",""down"",""down"",""down"",""down"",""down"",""down"",""down"",""down"",""down"",""down"",""down"",""down"",""down"",""down"",""down"",""down""]","[0,0,0,0,0,0,0,0,0,0,0,0,0,0,0,0,0,1,1,1,1,1,1,1,1,1,1,1,1,1,1,1,1,1,1,1,1,1,1,1,1,1,1,1,1,1,1,1,1,1,1,1,1,1,1,1,1,1,1,1,1,1,0,0,0,0,0,0,0,0,0,0,0,1,1,1,1,1,1,1,1,1,1,1,1,1,1,1,1,1,1,1,1,1,1,1,1,1]",283,-157.5,12.5,6841,1,0,1,0,1,0,48,0,48,0,1,47,,,,,,,,,,,,,,,,,,,,,,,,,,,,,,
,,,,,,,,,,,,,,,,,,,,,5df9ff4566247b000d5d9a72,23,female,2020-07-28_10h43.38.857,ProlificManual,3.2.2,Win32,60,5df9ff4566247b000d5d9a72,5f1f20d4c389060d55cb9bc4,5f1fe526b6b02a21f98e1457,,200,100,0,81,3.5,1,"[""stopped"",""stopped"",""stopped"",""stopped"",""stopped"",""stopped"",""stopped"",""stopped"",""stopped"",""stopped"",""stopped"",""stopped"",""stopped"",""stopped"",""stopped"",""stopped"",""stopped"",""stopped"",""stopped"",""down"",""down"",""down"",""down"",""down"",""down"",""down"",""down"",""down"",""down"",""down"",""down"",""down"",""down"",""down"",""down"",""down"",""down"",""down"",""down"",""down"",""down"",""down"",""down"",""down"",""down"",""down"",""down"",""down"",""down"",""stopped"",""stopped"",""stopped"",""stopped"",""stopped"",""stopped"",""stopped"",""stopped"",""stopped"",""stopped"",""right"",""right"",""right"",""right"",""right"",""right"",""right"",""right"",""right"",""right"",""right"",""right"",""right"",""right"",""right"",""right""]","[0,0,0,0,0,0,0,0,0,0,0,0,0,0,0,0,0,0,0,1,1,1,1,1,1,1,1,1,1,1,1,1,1,1,1,1,1,1,1,1,1,1,1,1,1,1,1,1,1,0,0,0,0,0,0,0,0,0,0,1,1,1,1,1,1,1,1,1,1,1,1,1,1,1,1]",298,56,-5,3981,1,0,1,0,1,0,48,0,48,0,1,47,,,,,,,,,,,,,,,,,,,,,,,,,,,,,,
,,,,,,,,,,,,,,,,,,,,,5df9ff4566247b000d5d9a72,23,female,2020-07-28_10h43.38.857,ProlificManual,3.2.2,Win32,60,5df9ff4566247b000d5d9a72,5f1f20d4c389060d55cb9bc4,5f1fe526b6b02a21f98e1457,,500,400,0,79,3.5,0,"[""stopped"",""stopped"",""stopped"",""stopped"",""stopped"",""stopped"",""stopped"",""stopped"",""stopped"",""stopped"",""stopped"",""stopped"",""stopped"",""stopped"",""stopped"",""stopped"",""stopped"",""right"",""right"",""right"",""right"",""right"",""right"",""right"",""right"",""right"",""right"",""right"",""right"",""right"",""right"",""right"",""right"",""right"",""right"",""right"",""right"",""right"",""right"",""right"",""right"",""right"",""right"",""right"",""right"",""right"",""right"",""right"",""right"",""right"",""right"",""right"",""right"",""right"",""right"",""right"",""right"",""right"",""right"",""right"",""right"",""right"",""right"",""right"",""right"",""right"",""right"",""right"",""right"",""right"",""right"",""right"",""right"",""right"",""right"",""right"",""right"",""right"",""right"",""right"",""right"",""right"",""right"",""right"",""right"",""right"",""right"",""right"",""right"",""right"",""right"",""right"",""right"",""right"",""right"",""right"",""right"",""right"",""right"",""right"",""right"",""right"",""right"",""right"",""right"",""right"",""right"",""right"",""right"",""right"",""right"",""right"",""right"",""right"",""right"",""right"",""right"",""right"",""right"",""right"",""right""]","[0,0,0,0,0,0,0,0,0,0,0,0,0,0,0,0,0,1,1,1,1,1,1,1,1,1,1,1,1,1,1,1,1,1,1,1,1,1,1,1,1,1,1,1,1,1,1,1,1,1,1,1,1,1,1,1,1,1,1,1,1,1,1,1,1,1,1,1,1,1,1,1,1,1,1,1,1,1,1,1,1,1,1,1,1,1,1,1,1,1,1,1,1,1,1,1,1,1,1,1,1,1,1,1,1,1,1,1,1,1,1,1,1,1,1,1,1,1,1,1,1]",301,364,100,5079,1,0,1,0,1,0,48,0,48,0,1,47,,,,,,,,,,,,,,,,,,,,,,,,,,,,,,
,,,,,,,,,,,,,,,,,,,,,5df9ff4566247b000d5d9a72,23,female,2020-07-28_10h43.38.857,ProlificManual,3.2.2,Win32,60,5df9ff4566247b000d5d9a72,5f1f20d4c389060d55cb9bc4,5f1fe526b6b02a21f98e1457,,300,-200,0,118,3.5,0,"[""stopped"",""stopped"",""stopped"",""stopped"",""stopped"",""stopped"",""stopped"",""stopped"",""stopped"",""stopped"",""stopped"",""stopped"",""stopped"",""left"",""left"",""left"",""left"",""left"",""left"",""left"",""left"",""left"",""left"",""left"",""left"",""left"",""left"",""left"",""left"",""left"",""left"",""left"",""left"",""left"",""left"",""left"",""left"",""left"",""left"",""left"",""left"",""left"",""left"",""left"",""left"",""left"",""left"",""left"",""left"",""left"",""left"",""left"",""left"",""left"",""left"",""stopped"",""down"",""down"",""down"",""down"",""stopped"",""stopped"",""stopped"",""stopped"",""stopped"",""stopped"",""stopped"",""stopped"",""stopped"",""down"",""down"",""down"",""down"",""down"",""down"",""down"",""down"",""down"",""down"",""down"",""down"",""down"",""down"",""down"",""down"",""down"",""down"",""down"",""down"",""down"",""down"",""down"",""down"",""down"",""down"",""down"",""down"",""down"",""down"",""down"",""stopped"",""stopped"",""stopped"",""stopped"",""stopped"",""stopped"",""stopped"",""stopped"",""stopped"",""stopped"",""stopped"",""stopped"",""stopped"",""stopped"",""stopped"",""stopped"",""stopped"",""stopped"",""stopped"",""stopped"",""stopped""]","[0,0,0,0,0,0,0,0,0,0,0,0,0,1,1,1,1,1,1,1,1,1,1,1,1,1,1,1,1,1,1,1,1,1,1,1,1,1,1,1,1,1,1,1,1,1,1,1,1,1,1,1,1,1,1,0,1,1,1,1,0,0,0,0,0,0,0,0,0,1,1,1,1,1,1,1,1,1,1,1,1,1,1,1,1,1,1,1,1,1,1,1,1,1,1,1,1,1,1,1,0,0,0,0,0,0,0,0,0,0,0,0,0,0,0,0,0,0,0,0,0]",234,-147,-22.5,5256,1,0,1,0,1,0,48,0,48,0,1,47,,,,,,,,,,,,,,,,,,,,,,,,,,,,,,
,,,,,,,,,,,,,,,,,,,,,5df9ff4566247b000d5d9a72,23,female,2020-07-28_10h43.38.857,ProlificManual,3.2.2,Win32,60,5df9ff4566247b000d5d9a72,5f1f20d4c389060d55cb9bc4,5f1fe526b6b02a21f98e1457,,300,200,0,141,3.5,1,"[""stopped"",""stopped"",""stopped"",""stopped"",""stopped"",""stopped"",""stopped"",""stopped"",""stopped"",""stopped"",""stopped"",""stopped"",""stopped"",""stopped"",""stopped"",""stopped"",""stopped"",""right"",""right"",""right"",""right"",""right"",""right"",""right"",""right"",""right"",""right"",""right"",""right"",""right"",""right"",""right"",""right"",""right"",""right"",""right"",""right"",""right"",""right"",""right"",""right"",""right"",""right"",""right"",""right"",""right"",""right"",""right"",""right"",""right"",""right"",""right"",""right"",""right"",""right"",""right"",""right"",""right"",""right"",""right"",""right"",""right"",""right"",""right"",""right"",""right"",""right"",""right"",""stopped"",""stopped"",""stopped"",""stopped"",""stopped"",""down"",""down"",""stopped"",""stopped"",""stopped"",""stopped"",""stopped"",""stopped"",""stopped"",""stopped"",""stopped"",""stopped"",""down"",""down"",""down"",""down"",""down"",""down"",""down"",""down"",""down"",""down"",""down"",""down"",""down"",""down"",""down"",""down""]","[0,0,0,0,0,0,0,0,0,0,0,0,0,0,0,0,0,1,1,1,1,1,1,1,1,1,1,1,1,1,1,1,1,1,1,1,1,1,1,1,1,1,1,1,1,1,1,1,1,1,1,1,1,1,1,1,1,1,1,1,1,1,1,1,1,1,1,1,0,0,0,0,0,1,1,0,0,0,0,0,0,0,0,0,0,1,1,1,1,1,1,1,1,1,1,1,1,1,1,1,1]",283,178.5,37,5169,1,0,1,0,1,0,48,0,48,0,1,47,,,,,,,,,,,,,,,,,,,,,,,,,,,,,,
,,,,,,,,,,,,,,,,,,,,,5df9ff4566247b000d5d9a72,23,female,2020-07-28_10h43.38.857,ProlificManual,3.2.2,Win32,60,5df9ff4566247b000d5d9a72,5f1f20d4c389060d55cb9bc4,5f1fe526b6b02a21f98e1457,,200,100,0,141,3.5,1,"[""stopped"",""stopped"",""stopped"",""stopped"",""stopped"",""stopped"",""stopped"",""stopped"",""stopped"",""stopped"",""stopped"",""stopped"",""stopped"",""stopped"",""stopped"",""stopped"",""stopped"",""stopped"",""down"",""down"",""down"",""down"",""down"",""down"",""down"",""down"",""down"",""down"",""down"",""down"",""down"",""down"",""down"",""down"",""down"",""down"",""down"",""down"",""down"",""down"",""down"",""down"",""down"",""down"",""down"",""down"",""down"",""down"",""down"",""down"",""stopped"",""stopped"",""stopped"",""stopped"",""stopped"",""stopped"",""stopped"",""stopped"",""stopped"",""stopped"",""stopped"",""right"",""right"",""right"",""right"",""right"",""right"",""stopped"",""stopped"",""stopped"",""stopped"",""right"",""right"",""right"",""right"",""right"",""right"",""right"",""right"",""right"",""right"",""right""]","[0,0,0,0,0,0,0,0,0,0,0,0,0,0,0,0,0,0,1,1,1,1,1,1,1,1,1,1,1,1,1,1,1,1,1,1,1,1,1,1,1,1,1,1,1,1,1,1,1,1,0,0,0,0,0,0,0,0,0,0,0,1,1,1,1,1,1,0,0,0,0,1,1,1,1,1,1,1,1,1,1,1]",300,59.5,-12,5682,1,0,1,0,1,0,48,0,48,0,1,47,,,,,,,,,,,,,,,,,,,,,,,,,,,,,,
,,,,,,,,,,,,,,,,,,,,,5df9ff4566247b000d5d9a72,23,female,2020-07-28_10h43.38.857,ProlificManual,3.2.2,Win32,60,5df9ff4566247b000d5d9a72,5f1f20d4c389060d55cb9bc4,5f1fe526b6b02a21f98e1457,,400,300,0,130,3.5,0,"[""stopped"",""stopped"",""stopped"",""stopped"",""stopped"",""stopped"",""stopped"",""stopped"",""stopped"",""stopped"",""stopped"",""stopped"",""stopped"",""stopped"",""stopped"",""stopped"",""stopped"",""stopped"",""stopped"",""stopped"",""down"",""down"",""down"",""down"",""down"",""down"",""down"",""down"",""down"",""down"",""down"",""down"",""down"",""down"",""down"",""down"",""down"",""down"",""down"",""down"",""down"",""down"",""down"",""down"",""down"",""down"",""down"",""down"",""down"",""down"",""down"",""stopped"",""stopped"",""stopped"",""stopped"",""stopped"",""stopped"",""stopped"",""stopped"",""stopped"",""stopped"",""stopped"",""stopped"",""right"",""right"",""right"",""right"",""right"",""right"",""right"",""right"",""right"",""right"",""right"",""right"",""right"",""right"",""right"",""right"",""right"",""right"",""right"",""right"",""right"",""right"",""right"",""right"",""right"",""right"",""right"",""right"",""right"",""right"",""right"",""right"",""right"",""right"",""right"",""right"",""right"",""right"",""right"",""right"",""right"",""right"",""right"",""right"",""right"",""right"",""right"",""right"",""right"",""right"",""right"",""right"",""right"",""right"",""right"",""right"",""right"",""right""]","[0,0,0,0,0,0,0,0,0,0,0,0,0,0,0,0,0,0,0,0,1,1,1,1,1,1,1,1,1,1,1,1,1,1,1,1,1,1,1,1,1,1,1,1,1,1,1,1,1,1,1,0,0,0,0,0,0,0,0,0,0,0,0,1,1,1,1,1,1,1,1,1,1,1,1,1,1,1,1,1,1,1,1,1,1,1,1,1,1,1,1,1,1,1,1,1,1,1,1,1,1,1,1,1,1,1,1,1,1,1,1,1,1,1,1,1,1,1,1,1,1]",333,203,-8.5,6714,1,0,1,0,1,0,48,0,48,0,1,47,,,,,,,,,,,,,,,,,,,,,,,,,,,,,,
,,,,,,,,,,,,,,,,,,,,,5df9ff4566247b000d5d9a72,23,female,2020-07-28_10h43.38.857,ProlificManual,3.2.2,Win32,60,5df9ff4566247b000d5d9a72,5f1f20d4c389060d55cb9bc4,5f1fe526b6b02a21f98e1457,,400,300,0,87,3.5,0,"[""stopped"",""stopped"",""stopped"",""stopped"",""stopped"",""stopped"",""stopped"",""stopped"",""stopped"",""stopped"",""stopped"",""stopped"",""stopped"",""stopped"",""stopped"",""stopped"",""stopped"",""stopped"",""down"",""down"",""down"",""down"",""down"",""down"",""down"",""down"",""down"",""down"",""down"",""down"",""down"",""down"",""down"",""down"",""down"",""down"",""down"",""down"",""down"",""down"",""down"",""down"",""down"",""down"",""stopped"",""stopped"",""stopped"",""stopped"",""stopped"",""stopped"",""stopped"",""stopped"",""stopped"",""stopped"",""stopped"",""right"",""right"",""right"",""right"",""right"",""right"",""right"",""right"",""right"",""right"",""right"",""right"",""right"",""right"",""right"",""right"",""right"",""right"",""right"",""right"",""right"",""right"",""right"",""right"",""right"",""right"",""right"",""right"",""right"",""right"",""right"",""right"",""right"",""right"",""right"",""right"",""right"",""right"",""right"",""right"",""right"",""right"",""right"",""right"",""right"",""right"",""right"",""right"",""right"",""right"",""right"",""right"",""right"",""right"",""right"",""right"",""right"",""right"",""right"",""right"",""right"",""right"",""right"",""right"",""right"",""right""]","[0,0,0,0,0,0,0,0,0,0,0,0,0,0,0,0,0,0,1,1,1,1,1,1,1,1,1,1,1,1,1,1,1,1,1,1,1,1,1,1,1,1,1,1,0,0,0,0,0,0,0,0,0,0,0,1,1,1,1,1,1,1,1,1,1,1,1,1,1,1,1,1,1,1,1,1,1,1,1,1,1,1,1,1,1,1,1,1,1,1,1,1,1,1,1,1,1,1,1,1,1,1,1,1,1,1,1,1,1,1,1,1,1,1,1,1,1,1,1,1,1]",300,231,9,5056,1,0,1,0,1,0,48,0,48,0,1,47,,,,,,,,,,,,,,,,,,,,,,,,,,,,,,
,,,,,,,,,,,,,,,,,,,,,5df9ff4566247b000d5d9a72,23,female,2020-07-28_10h43.38.857,ProlificManual,3.2.2,Win32,60,5df9ff4566247b000d5d9a72,5f1f20d4c389060d55cb9bc4,5f1fe526b6b02a21f98e1457,,400,-300,0,71,3.5,0,"[""stopped"",""stopped"",""stopped"",""stopped"",""stopped"",""stopped"",""stopped"",""stopped"",""stopped"",""stopped"",""stopped"",""stopped"",""stopped"",""stopped"",""stopped"",""stopped"",""stopped"",""down"",""down"",""down"",""down"",""down"",""down"",""down"",""down"",""down"",""down"",""down"",""down"",""down"",""down"",""down"",""down"",""down"",""down"",""down"",""down"",""down"",""down"",""down"",""down"",""down"",""stopped"",""stopped"",""stopped"",""stopped"",""stopped"",""stopped"",""stopped"",""stopped"",""stopped"",""stopped"",""stopped"",""stopped"",""stopped"",""stopped"",""stopped"",""left"",""left"",""left"",""left"",""left"",""left"",""left"",""left"",""left"",""left"",""left"",""left"",""left"",""left"",""left"",""left"",""left"",""left"",""left"",""left"",""left"",""left"",""left"",""left"",""left"",""left"",""left"",""left"",""left"",""left"",""left"",""left"",""left"",""left"",""left"",""left"",""left"",""left"",""left"",""left"",""left"",""left"",""left"",""left"",""left"",""left"",""left"",""left"",""left"",""left"",""left"",""left"",""left"",""left"",""left"",""left"",""left"",""left"",""left"",""left"",""left"",""left"",""left"",""left""]","[0,0,0,0,0,0,0,0,0,0,0,0,0,0,0,0,0,1,1,1,1,1,1,1,1,1,1,1,1,1,1,1,1,1,1,1,1,1,1,1,1,1,0,0,0,0,0,0,0,0,0,0,0,0,0,0,0,1,1,1,1,1,1,1,1,1,1,1,1,1,1,1,1,1,1,1,1,1,1,1,1,1,1,1,1,1,1,1,1,1,1,1,1,1,1,1,1,1,1,1,1,1,1,1,1,1,1,1,1,1,1,1,1,1,1,1,1,1,1,1,1]",299,-224,12.5,4523,1,0,1,0,1,0,48,0,48,0,1,47,,,,,,,,,,,,,,,,,,,,,,,,,,,,,,
,,,,,,,,,,,,,,,,,,,,,5df9ff4566247b000d5d9a72,23,female,2020-07-28_10h43.38.857,ProlificManual,3.2.2,Win32,60,5df9ff4566247b000d5d9a72,5f1f20d4c389060d55cb9bc4,5f1fe526b6b02a21f98e1457,,300,-200,0,149,3.5,1,"[""stopped"",""stopped"",""stopped"",""stopped"",""stopped"",""stopped"",""stopped"",""stopped"",""stopped"",""stopped"",""stopped"",""stopped"",""stopped"",""stopped"",""stopped"",""stopped"",""stopped"",""down"",""down"",""down"",""down"",""down"",""down"",""down"",""down"",""down"",""down"",""down"",""down"",""down"",""down"",""down"",""down"",""down"",""down"",""down"",""down"",""down"",""down"",""down"",""down"",""down"",""down"",""down"",""down"",""stopped"",""stopped"",""stopped"",""stopped"",""stopped"",""stopped"",""stopped"",""stopped"",""stopped"",""stopped"",""stopped"",""left"",""left"",""left"",""left"",""left"",""left"",""left"",""left"",""left"",""left"",""left"",""left"",""left"",""left"",""left"",""left"",""left"",""left"",""left"",""left"",""left"",""left"",""left"",""left"",""left"",""left"",""left"",""left"",""left"",""left"",""left"",""left"",""left"",""left"",""left"",""left"",""left"",""left"",""left"",""left"",""left"",""left"",""left"",""left"",""left""]","[0,0,0,0,0,0,0,0,0,0,0,0,0,0,0,0,0,1,1,1,1,1,1,1,1,1,1,1,1,1,1,1,1,1,1,1,1,1,1,1,1,1,1,1,1,0,0,0,0,0,0,0,0,0,0,0,1,1,1,1,1,1,1,1,1,1,1,1,1,1,1,1,1,1,1,1,1,1,1,1,1,1,1,1,1,1,1,1,1,1,1,1,1,1,1,1,1,1,1,1,1]",283,-157.5,2,5706,1,0,1,0,1,0,48,0,48,0,1,47,,,,,,,,,,,,,,,,,,,,,,,,,,,,,,
,,,,,,,,,,,,,,,,,,,,,5df9ff4566247b000d5d9a72,23,female,2020-07-28_10h43.38.857,ProlificManual,3.2.2,Win32,60,5df9ff4566247b000d5d9a72,5f1f20d4c389060d55cb9bc4,5f1fe526b6b02a21f98e1457,,300,-200,0,75,3.5,1,"[""stopped"",""stopped"",""stopped"",""stopped"",""stopped"",""stopped"",""stopped"",""stopped"",""stopped"",""stopped"",""stopped"",""stopped"",""stopped"",""stopped"",""stopped"",""stopped"",""stopped"",""down"",""down"",""down"",""down"",""down"",""down"",""down"",""down"",""down"",""down"",""down"",""down"",""down"",""down"",""down"",""down"",""down"",""down"",""down"",""down"",""down"",""down"",""down"",""down"",""down"",""down"",""down"",""down"",""stopped"",""stopped"",""stopped"",""stopped"",""stopped"",""stopped"",""stopped"",""stopped"",""stopped"",""stopped"",""stopped"",""stopped"",""stopped"",""stopped"",""stopped"",""stopped"",""stopped"",""stopped"",""stopped"",""stopped"",""stopped"",""stopped"",""stopped"",""stopped"",""left"",""left"",""left"",""left"",""left"",""left"",""left"",""left"",""left"",""left"",""left"",""left"",""left"",""left"",""left"",""left"",""left"",""left"",""left"",""left"",""left"",""left"",""left"",""left"",""left"",""left"",""left"",""left"",""left"",""left"",""left"",""left"",""left"",""left"",""left"",""left"",""left"",""left"",""left"",""left"",""left"",""left"",""left"",""left"",""left""]","[0,0,0,0,0,0,0,0,0,0,0,0,0,0,0,0,0,1,1,1,1,1,1,1,1,1,1,1,1,1,1,1,1,1,1,1,1,1,1,1,1,1,1,1,1,0,0,0,0,0,0,0,0,0,0,0,0,0,0,0,0,0,0,0,0,0,0,0,0,1,1,1,1,1,1,1,1,1,1,1,1,1,1,1,1,1,1,1,1,1,1,1,1,1,1,1,1,1,1,1,1,1,1,1,1,1,1,1,1,1,1,1,1,1]",304,-157.5,2,4483,1,0,1,0,1,0,48,0,48,0,1,47,,,,,,,,,,,,,,,,,,,,,,,,,,,,,,
,,,,,,,,,,,,,,,,,,,,,5df9ff4566247b000d5d9a72,23,female,2020-07-28_10h43.38.857,ProlificManual,3.2.2,Win32,60,5df9ff4566247b000d5d9a72,5f1f20d4c389060d55cb9bc4,5f1fe526b6b02a21f98e1457,,200,100,0,96,3.5,1,"[""stopped"",""stopped"",""stopped"",""stopped"",""stopped"",""stopped"",""stopped"",""stopped"",""stopped"",""stopped"",""stopped"",""stopped"",""stopped"",""stopped"",""stopped"",""stopped"",""stopped"",""stopped"",""down"",""down"",""down"",""down"",""down"",""down"",""down"",""down"",""down"",""down"",""down"",""down"",""down"",""down"",""down"",""down"",""down"",""down"",""down"",""down"",""down"",""down"",""down"",""down"",""down"",""down"",""down"",""down"",""down"",""down"",""down"",""down"",""down"",""down"",""stopped"",""stopped"",""stopped"",""stopped"",""stopped"",""stopped"",""stopped"",""stopped"",""stopped"",""stopped"",""stopped"",""right"",""right"",""right"",""right"",""right"",""right"",""right"",""right"",""right"",""right"",""right"",""right"",""right"",""right"",""right"",""right"",""right""]","[0,0,0,0,0,0,0,0,0,0,0,0,0,0,0,0,0,0,1,1,1,1,1,1,1,1,1,1,1,1,1,1,1,1,1,1,1,1,1,1,1,1,1,1,1,1,1,1,1,1,1,1,0,0,0,0,0,0,0,0,0,0,0,1,1,1,1,1,1,1,1,1,1,1,1,1,1,1,1,1]",291,59.5,-19,4173,1,0,1,0,1,0,48,0,48,0,1,47,,,,,,,,,,,,,,,,,,,,,,,,,,,,,,
,,,,,,,,,,,,,,,,,,,,,5df9ff4566247b000d5d9a72,23,female,2020-07-28_10h43.38.857,ProlificManual,3.2.2,Win32,60,5df9ff4566247b000d5d9a72,5f1f20d4c389060d55cb9bc4,5f1fe526b6b02a21f98e1457,,200,100,0,88,3.5,1,"[""stopped"",""stopped"",""stopped"",""stopped"",""stopped"",""stopped"",""stopped"",""stopped"",""stopped"",""stopped"",""stopped"",""stopped"",""stopped"",""stopped"",""stopped"",""stopped"",""stopped"",""down"",""down"",""down"",""down"",""down"",""down"",""down"",""down"",""down"",""down"",""down"",""down"",""down"",""down"",""down"",""down"",""down"",""down"",""down"",""down"",""down"",""down"",""down"",""down"",""down"",""down"",""stopped"",""stopped"",""stopped"",""stopped"",""stopped"",""stopped"",""stopped"",""stopped"",""stopped"",""stopped"",""stopped"",""right"",""right"",""right"",""right"",""right"",""right"",""right"",""right"",""right"",""right"",""right"",""right"",""right"",""right"",""right"",""right""]","[0,0,0,0,0,0,0,0,0,0,0,0,0,0,0,0,0,1,1,1,1,1,1,1,1,1,1,1,1,1,1,1,1,1,1,1,1,1,1,1,1,1,1,0,0,0,0,0,0,0,0,0,0,0,1,1,1,1,1,1,1,1,1,1,1,1,1,1,1,1]",294,56,9,3917,1,0,1,0,1,0,48,0,48,0,1,47,,,,,,,,,,,,,,,,,,,,,,,,,,,,,,
,,,,,,,,,,,,,,,,,,,,,5df9ff4566247b000d5d9a72,23,female,2020-07-28_10h43.38.857,ProlificManual,3.2.2,Win32,60,5df9ff4566247b000d5d9a72,5f1f20d4c389060d55cb9bc4,5f1fe526b6b02a21f98e1457,,200,100,0,100,3.5,1,"[""stopped"",""stopped"",""stopped"",""stopped"",""stopped"",""stopped"",""stopped"",""stopped"",""stopped"",""stopped"",""stopped"",""stopped"",""stopped"",""stopped"",""stopped"",""stopped"",""down"",""down"",""down"",""down"",""down"",""down"",""down"",""down"",""down"",""down"",""down"",""down"",""down"",""down"",""down"",""down"",""down"",""down"",""down"",""down"",""down"",""down"",""down"",""down"",""down"",""down"",""down"",""stopped"",""stopped"",""stopped"",""stopped"",""stopped"",""stopped"",""stopped"",""stopped"",""stopped"",""stopped"",""right"",""right"",""right"",""right"",""right"",""right"",""right"",""right"",""right"",""right"",""right"",""right"",""right"",""right"",""right"",""right""]","[0,0,0,0,0,0,0,0,0,0,0,0,0,0,0,0,1,1,1,1,1,1,1,1,1,1,1,1,1,1,1,1,1,1,1,1,1,1,1,1,1,1,1,0,0,0,0,0,0,0,0,0,0,1,1,1,1,1,1,1,1,1,1,1,1,1,1,1,1]",261,56,5.5,3993,1,0,1,0,1,0,48,0,48,0,1,47,,,,,,,,,,,,,,,,,,,,,,,,,,,,,,
,,,,,,,,,,,,,,,,,,,,,5df9ff4566247b000d5d9a72,23,female,2020-07-28_10h43.38.857,ProlificManual,3.2.2,Win32,60,5df9ff4566247b000d5d9a72,5f1f20d4c389060d55cb9bc4,5f1fe526b6b02a21f98e1457,,300,200,0,125,3.5,1,"[""stopped"",""stopped"",""stopped"",""stopped"",""stopped"",""stopped"",""stopped"",""stopped"",""stopped"",""stopped"",""stopped"",""stopped"",""stopped"",""stopped"",""stopped"",""stopped"",""stopped"",""stopped"",""down"",""down"",""down"",""down"",""down"",""down"",""down"",""down"",""down"",""down"",""down"",""down"",""down"",""down"",""down"",""down"",""down"",""down"",""down"",""down"",""down"",""down"",""down"",""down"",""down"",""down"",""down"",""down"",""down"",""stopped"",""stopped"",""stopped"",""stopped"",""stopped"",""stopped"",""stopped"",""stopped"",""stopped"",""stopped"",""right"",""right"",""right"",""right"",""right"",""right"",""right"",""right"",""right"",""right"",""right"",""right"",""right"",""right"",""right"",""right"",""right"",""right"",""right"",""right"",""right"",""right"",""right"",""right"",""right"",""right"",""right"",""right"",""right"",""right"",""right"",""right"",""right"",""right"",""right"",""right"",""right"",""right"",""right"",""right"",""right"",""right"",""right"",""right"",""right""]","[0,0,0,0,0,0,0,0,0,0,0,0,0,0,0,0,0,0,1,1,1,1,1,1,1,1,1,1,1,1,1,1,1,1,1,1,1,1,1,1,1,1,1,1,1,1,1,0,0,0,0,0,0,0,0,0,0,1,1,1,1,1,1,1,1,1,1,1,1,1,1,1,1,1,1,1,1,1,1,1,1,1,1,1,1,1,1,1,1,1,1,1,1,1,1,1,1,1,1,1,1,1]",309,157.5,-1.5,5230,1,0,1,0,1,0,48,0,48,0,1,47,,,,,,,,,,,,,,,,,,,,,,,,,,,,,,
,,,,,,,,,,,,,,,,,,,,,5df9ff4566247b000d5d9a72,23,female,2020-07-28_10h43.38.857,ProlificManual,3.2.2,Win32,60,5df9ff4566247b000d5d9a72,5f1f20d4c389060d55cb9bc4,5f1fe526b6b02a21f98e1457,,500,400,0,93,3.5,0,"[""stopped"",""stopped"",""stopped"",""stopped"",""stopped"",""stopped"",""stopped"",""stopped"",""stopped"",""stopped"",""stopped"",""stopped"",""stopped"",""stopped"",""stopped"",""right"",""right"",""right"",""right"",""right"",""right"",""right"",""right"",""right"",""right"",""right"",""right"",""right"",""right"",""right"",""right"",""right"",""right"",""right"",""right"",""right"",""right"",""right"",""right"",""right"",""right"",""right"",""right"",""right"",""right"",""right"",""right"",""right"",""right"",""right"",""right"",""right"",""right"",""right"",""right"",""right"",""right"",""right"",""right"",""right"",""right"",""right"",""right"",""right"",""right"",""right"",""right"",""right"",""right"",""right"",""right"",""right"",""right"",""right"",""right"",""right"",""right"",""right"",""right"",""right"",""right"",""right"",""right"",""right"",""right"",""right"",""right"",""right"",""right"",""right"",""right"",""right"",""right"",""right"",""right"",""right"",""right"",""right"",""right"",""right"",""right"",""right"",""right"",""right"",""right"",""right"",""right"",""right"",""right"",""right"",""right"",""right"",""stopped"",""stopped"",""stopped"",""stopped"",""stopped"",""stopped"",""stopped"",""stopped"",""stopped""]","[0,0,0,0,0,0,0,0,0,0,0,0,0,0,0,1,1,1,1,1,1,1,1,1,1,1,1,1,1,1,1,1,1,1,1,1,1,1,1,1,1,1,1,1,1,1,1,1,1,1,1,1,1,1,1,1,1,1,1,1,1,1,1,1,1,1,1,1,1,1,1,1,1,1,1,1,1,1,1,1,1,1,1,1,1,1,1,1,1,1,1,1,1,1,1,1,1,1,1,1,1,1,1,1,1,1,1,1,1,1,1,1,0,0,0,0,0,0,0,0,0]",249,339.5,100,5096,1,0,1,0,1,0,48,0,48,0,1,47,,,,,,,,,,,,,,,,,,,,,,,,,,,,,,
,,,,,,,,,,,,,,,,,,,,,5df9ff4566247b000d5d9a72,23,female,2020-07-28_10h43.38.857,ProlificManual,3.2.2,Win32,60,5df9ff4566247b000d5d9a72,5f1f20d4c389060d55cb9bc4,5f1fe526b6b02a21f98e1457,,200,100,0,141,3.5,1,"[""stopped"",""stopped"",""stopped"",""stopped"",""stopped"",""stopped"",""stopped"",""stopped"",""stopped"",""stopped"",""stopped"",""stopped"",""stopped"",""stopped"",""stopped"",""stopped"",""stopped"",""stopped"",""stopped"",""down"",""down"",""down"",""down"",""down"",""down"",""down"",""down"",""down"",""down"",""down"",""down"",""down"",""down"",""down"",""down"",""down"",""down"",""down"",""down"",""down"",""down"",""down"",""down"",""down"",""down"",""down"",""down"",""stopped"",""stopped"",""stopped"",""stopped"",""stopped"",""stopped"",""stopped"",""stopped"",""stopped"",""stopped"",""stopped"",""right"",""right"",""right"",""right"",""right"",""right"",""right"",""right"",""right"",""right"",""right"",""right"",""right"",""right"",""right"",""right""]","[0,0,0,0,0,0,0,0,0,0,0,0,0,0,0,0,0,0,0,1,1,1,1,1,1,1,1,1,1,1,1,1,1,1,1,1,1,1,1,1,1,1,1,1,1,1,1,0,0,0,0,0,0,0,0,0,0,0,1,1,1,1,1,1,1,1,1,1,1,1,1,1,1,1]",322,56,2,8217,1,0,1,0,1,0,48,0,48,0,1,47,,,,,,,,,,,,,,,,,,,,,,,,,,,,,,
,,,,,,,,,,,,,,,,,,,,,5df9ff4566247b000d5d9a72,23,female,2020-07-28_10h43.38.857,ProlificManual,3.2.2,Win32,60,5df9ff4566247b000d5d9a72,5f1f20d4c389060d55cb9bc4,5f1fe526b6b02a21f98e1457,,500,400,0,149,3.5,0,"[""stopped"",""stopped"",""stopped"",""stopped"",""stopped"",""stopped"",""stopped"",""stopped"",""stopped"",""stopped"",""stopped"",""stopped"",""stopped"",""stopped"",""stopped"",""stopped"",""stopped"",""down"",""down"",""down"",""down"",""down"",""down"",""down"",""down"",""down"",""down"",""down"",""down"",""down"",""down"",""down"",""down"",""down"",""down"",""down"",""down"",""down"",""down"",""down"",""down"",""down"",""stopped"",""stopped"",""stopped"",""stopped"",""stopped"",""stopped"",""stopped"",""stopped"",""stopped"",""stopped"",""stopped"",""right"",""right"",""right"",""right"",""right"",""right"",""right"",""right"",""right"",""right"",""right"",""right"",""right"",""right"",""right"",""right"",""right"",""right"",""right"",""right"",""right"",""right"",""right"",""right"",""right"",""right"",""right"",""right"",""right"",""right"",""right"",""right"",""right"",""right"",""right"",""right"",""right"",""right"",""right"",""right"",""right"",""right"",""right"",""right"",""right"",""right"",""right"",""right"",""right"",""right"",""right"",""right"",""right"",""right"",""right"",""right"",""right"",""right"",""right"",""right"",""right"",""right"",""right"",""right"",""right"",""right"",""right"",""right""]","[0,0,0,0,0,0,0,0,0,0,0,0,0,0,0,0,0,1,1,1,1,1,1,1,1,1,1,1,1,1,1,1,1,1,1,1,1,1,1,1,1,1,0,0,0,0,0,0,0,0,0,0,0,1,1,1,1,1,1,1,1,1,1,1,1,1,1,1,1,1,1,1,1,1,1,1,1,1,1,1,1,1,1,1,1,1,1,1,1,1,1,1,1,1,1,1,1,1,1,1,1,1,1,1,1,1,1,1,1,1,1,1,1,1,1,1,1,1,1,1,1]",283,238,12.5,6817,1,0,1,0,1,0,48,0,48,0,1,47,,,,,,,,,,,,,,,,,,,,,,,,,,,,,,
,,,,,,,,,,,,,,,,,,,,,5df9ff4566247b000d5d9a72,23,female,2020-07-28_10h43.38.857,ProlificManual,3.2.2,Win32,60,5df9ff4566247b000d5d9a72,5f1f20d4c389060d55cb9bc4,5f1fe526b6b02a21f98e1457,,400,300,0,82,3.5,0,"[""stopped"",""stopped"",""stopped"",""stopped"",""stopped"",""stopped"",""stopped"",""stopped"",""stopped"",""stopped"",""stopped"",""stopped"",""stopped"",""stopped"",""stopped"",""stopped"",""stopped"",""stopped"",""stopped"",""stopped"",""stopped"",""stopped"",""stopped"",""stopped"",""stopped"",""down"",""down"",""down"",""down"",""down"",""down"",""down"",""down"",""down"",""down"",""down"",""down"",""down"",""down"",""down"",""down"",""down"",""down"",""down"",""down"",""down"",""down"",""down"",""down"",""down"",""down"",""down"",""stopped"",""stopped"",""stopped"",""stopped"",""stopped"",""stopped"",""stopped"",""stopped"",""stopped"",""stopped"",""stopped"",""right"",""right"",""right"",""right"",""right"",""right"",""right"",""right"",""right"",""right"",""right"",""right"",""right"",""right"",""right"",""right"",""right"",""right"",""right"",""right"",""right"",""right"",""right"",""right"",""right"",""right"",""right"",""right"",""right"",""right"",""right"",""right"",""right"",""right"",""right"",""right"",""right"",""right"",""right"",""right"",""right"",""right"",""right"",""right"",""right"",""right"",""right"",""right"",""right"",""right"",""right"",""right"",""right"",""right"",""right"",""right"",""right"",""right""]","[0,0,0,0,0,0,0,0,0,0,0,0,0,0,0,0,0,0,0,0,0,0,0,0,0,1,1,1,1,1,1,1,1,1,1,1,1,1,1,1,1,1,1,1,1,1,1,1,1,1,1,1,0,0,0,0,0,0,0,0,0,0,0,1,1,1,1,1,1,1,1,1,1,1,1,1,1,1,1,1,1,1,1,1,1,1,1,1,1,1,1,1,1,1,1,1,1,1,1,1,1,1,1,1,1,1,1,1,1,1,1,1,1,1,1,1,1,1,1,1,1]",419,203,5.5,4499,1,0,1,0,1,0,48,0,48,0,1,47,,,,,,,,,,,,,,,,,,,,,,,,,,,,,,
,,,,,,,,,,,,,,,,,,,,,5df9ff4566247b000d5d9a72,23,female,2020-07-28_10h43.38.857,ProlificManual,3.2.2,Win32,60,5df9ff4566247b000d5d9a72,5f1f20d4c389060d55cb9bc4,5f1fe526b6b02a21f98e1457,,400,300,0,81,3.5,0,"[""stopped"",""stopped"",""stopped"",""stopped"",""stopped"",""stopped"",""stopped"",""stopped"",""stopped"",""stopped"",""stopped"",""stopped"",""stopped"",""stopped"",""stopped"",""stopped"",""stopped"",""stopped"",""down"",""down"",""down"",""down"",""down"",""down"",""down"",""down"",""down"",""down"",""down"",""down"",""down"",""down"",""down"",""down"",""down"",""down"",""down"",""down"",""stopped"",""stopped"",""stopped"",""stopped"",""stopped"",""stopped"",""stopped"",""stopped"",""stopped"",""stopped"",""stopped"",""stopped"",""stopped"",""right"",""right"",""right"",""right"",""right"",""right"",""right"",""right"",""right"",""right"",""right"",""right"",""right"",""right"",""right"",""right"",""right"",""right"",""right"",""right"",""right"",""right"",""right"",""right"",""right"",""right"",""right"",""right"",""right"",""right"",""right"",""right"",""right"",""right"",""right"",""right"",""right"",""right"",""right"",""right"",""right"",""right"",""right"",""right"",""right"",""right"",""right"",""right"",""right"",""right"",""right"",""right"",""right"",""right"",""right"",""right"",""right"",""right"",""right"",""right"",""right"",""right"",""right"",""right"",""right"",""right"",""right"",""right"",""right"",""right""]","[0,0,0,0,0,0,0,0,0,0,0,0,0,0,0,0,0,0,1,1,1,1,1,1,1,1,1,1,1,1,1,1,1,1,1,1,1,1,0,0,0,0,0,0,0,0,0,0,0,0,0,1,1,1,1,1,1,1,1,1,1,1,1,1,1,1,1,1,1,1,1,1,1,1,1,1,1,1,1,1,1,1,1,1,1,1,1,1,1,1,1,1,1,1,1,1,1,1,1,1,1,1,1,1,1,1,1,1,1,1,1,1,1,1,1,1,1,1,1,1,1]",305,245,30,4858,1,0,1,0,1,0,48,0,48,0,1,47,,,,,,,,,,,,,,,,,,,,,,,,,,,,,,
,,,,,,,,,,,,,,,,,,,,,5df9ff4566247b000d5d9a72,23,female,2020-07-28_10h43.38.857,ProlificManual,3.2.2,Win32,60,5df9ff4566247b000d5d9a72,5f1f20d4c389060d55cb9bc4,5f1fe526b6b02a21f98e1457,,500,400,0,91,3.5,0,"[""stopped"",""stopped"",""stopped"",""stopped"",""stopped"",""stopped"",""stopped"",""stopped"",""stopped"",""stopped"",""stopped"",""stopped"",""stopped"",""stopped"",""stopped"",""stopped"",""stopped"",""down"",""down"",""down"",""down"",""down"",""down"",""down"",""down"",""down"",""down"",""down"",""down"",""down"",""down"",""down"",""down"",""down"",""down"",""down"",""down"",""down"",""down"",""stopped"",""stopped"",""stopped"",""stopped"",""stopped"",""stopped"",""stopped"",""stopped"",""stopped"",""stopped"",""stopped"",""right"",""right"",""right"",""right"",""right"",""right"",""right"",""right"",""right"",""right"",""right"",""right"",""right"",""right"",""right"",""right"",""right"",""right"",""right"",""right"",""right"",""right"",""right"",""right"",""right"",""right"",""right"",""right"",""right"",""right"",""right"",""right"",""right"",""right"",""right"",""right"",""right"",""right"",""right"",""right"",""right"",""right"",""right"",""right"",""right"",""right"",""right"",""right"",""right"",""right"",""right"",""right"",""right"",""right"",""right"",""right"",""right"",""right"",""right"",""right"",""right"",""right"",""right"",""right"",""right"",""right"",""right"",""right"",""right"",""right"",""right""]","[0,0,0,0,0,0,0,0,0,0,0,0,0,0,0,0,0,1,1,1,1,1,1,1,1,1,1,1,1,1,1,1,1,1,1,1,1,1,1,0,0,0,0,0,0,0,0,0,0,0,1,1,1,1,1,1,1,1,1,1,1,1,1,1,1,1,1,1,1,1,1,1,1,1,1,1,1,1,1,1,1,1,1,1,1,1,1,1,1,1,1,1,1,1,1,1,1,1,1,1,1,1,1,1,1,1,1,1,1,1,1,1,1,1,1,1,1,1,1,1,1]",281,248.5,23,5159,1,0,1,0,1,0,48,0,48,0,1,47,,,,,,,,,,,,,,,,,,,,,,,,,,,,,,
,,,,,,,,,,,,,,,,,,,,,5df9ff4566247b000d5d9a72,23,female,2020-07-28_10h43.38.857,ProlificManual,3.2.2,Win32,60,5df9ff4566247b000d5d9a72,5f1f20d4c389060d55cb9bc4,5f1fe526b6b02a21f98e1457,,300,200,0,105,3.5,1,"[""stopped"",""stopped"",""stopped"",""stopped"",""stopped"",""stopped"",""stopped"",""stopped"",""stopped"",""stopped"",""stopped"",""stopped"",""stopped"",""stopped"",""stopped"",""stopped"",""stopped"",""down"",""down"",""down"",""down"",""down"",""down"",""down"",""down"",""down"",""down"",""down"",""down"",""down"",""down"",""down"",""down"",""down"",""down"",""down"",""down"",""down"",""down"",""down"",""down"",""down"",""down"",""down"",""stopped"",""stopped"",""stopped"",""stopped"",""stopped"",""stopped"",""stopped"",""stopped"",""stopped"",""stopped"",""stopped"",""stopped"",""right"",""right"",""right"",""right"",""right"",""right"",""right"",""right"",""right"",""right"",""right"",""right"",""right"",""right"",""right"",""right"",""right"",""right"",""right"",""right"",""right"",""right"",""right"",""right"",""right"",""right"",""right"",""right"",""right"",""right"",""right"",""right"",""right"",""right"",""right"",""right"",""right"",""right"",""right"",""right"",""right"",""right"",""right"",""right"",""right""]","[0,0,0,0,0,0,0,0,0,0,0,0,0,0,0,0,0,1,1,1,1,1,1,1,1,1,1,1,1,1,1,1,1,1,1,1,1,1,1,1,1,1,1,1,0,0,0,0,0,0,0,0,0,0,0,0,1,1,1,1,1,1,1,1,1,1,1,1,1,1,1,1,1,1,1,1,1,1,1,1,1,1,1,1,1,1,1,1,1,1,1,1,1,1,1,1,1,1,1,1,1]",282,157.5,5.5,5584,1,0,1,0,1,0,48,0,48,0,1,47,,,,,,,,,,,,,,,,,,,,,,,,,,,,,,
,,,,,,,,,,,,,,,,,,,,,5df9ff4566247b000d5d9a72,23,female,2020-07-28_10h43.38.857,ProlificManual,3.2.2,Win32,60,5df9ff4566247b000d5d9a72,5f1f20d4c389060d55cb9bc4,5f1fe526b6b02a21f98e1457,,200,-100,0,76,3.5,1,"[""stopped"",""stopped"",""stopped"",""stopped"",""stopped"",""stopped"",""stopped"",""stopped"",""stopped"",""stopped"",""stopped"",""stopped"",""stopped"",""stopped"",""stopped"",""stopped"",""stopped"",""stopped"",""stopped"",""down"",""down"",""down"",""down"",""down"",""down"",""down"",""down"",""down"",""down"",""down"",""down"",""down"",""down"",""down"",""down"",""down"",""down"",""down"",""down"",""down"",""down"",""down"",""down"",""down"",""down"",""down"",""down"",""down"",""stopped"",""stopped"",""stopped"",""stopped"",""stopped"",""stopped"",""stopped"",""stopped"",""stopped"",""stopped"",""stopped"",""left"",""left"",""left"",""left"",""left"",""left"",""left"",""left"",""left"",""left"",""left"",""left"",""left"",""left"",""left"",""left""]","[0,0,0,0,0,0,0,0,0,0,0,0,0,0,0,0,0,0,0,1,1,1,1,1,1,1,1,1,1,1,1,1,1,1,1,1,1,1,1,1,1,1,1,1,1,1,1,1,0,0,0,0,0,0,0,0,0,0,0,1,1,1,1,1,1,1,1,1,1,1,1,1,1,1,1]",317,-56,-1.5,3782,1,0,1,0,1,0,48,0,48,0,1,47,,,,,,,,,,,,,,,,,,,,,,,,,,,,,,
,,,,,,,,,,,,,,,,,,,,,5df9ff4566247b000d5d9a72,23,female,2020-07-28_10h43.38.857,ProlificManual,3.2.2,Win32,60,5df9ff4566247b000d5d9a72,5f1f20d4c389060d55cb9bc4,5f1fe526b6b02a21f98e1457,,200,100,0,98,3.5,1,"[""stopped"",""stopped"",""stopped"",""stopped"",""stopped"",""stopped"",""stopped"",""stopped"",""stopped"",""stopped"",""stopped"",""stopped"",""stopped"",""stopped"",""stopped"",""stopped"",""stopped"",""stopped"",""down"",""down"",""down"",""down"",""down"",""down"",""down"",""down"",""down"",""down"",""down"",""down"",""down"",""down"",""down"",""down"",""down"",""down"",""down"",""down"",""down"",""down"",""down"",""down"",""down"",""down"",""down"",""down"",""stopped"",""stopped"",""stopped"",""stopped"",""stopped"",""stopped"",""stopped"",""stopped"",""stopped"",""stopped"",""right"",""right"",""right"",""right"",""right"",""right"",""right"",""right"",""right"",""right"",""right"",""right"",""right"",""right"",""right"",""right""]","[0,0,0,0,0,0,0,0,0,0,0,0,0,0,0,0,0,0,1,1,1,1,1,1,1,1,1,1,1,1,1,1,1,1,1,1,1,1,1,1,1,1,1,1,1,1,0,0,0,0,0,0,0,0,0,0,1,1,1,1,1,1,1,1,1,1,1,1,1,1,1,1]",299,56,2,4458,1,0,1,0,1,0,48,0,48,0,1,47,,,,,,,,,,,,,,,,,,,,,,,,,,,,,,
,,,,,,,,,,,,,,,,,,,,,5df9ff4566247b000d5d9a72,23,female,2020-07-28_10h43.38.857,ProlificManual,3.2.2,Win32,60,5df9ff4566247b000d5d9a72,5f1f20d4c389060d55cb9bc4,5f1fe526b6b02a21f98e1457,,,,,,,,,,,,,14236,1,0,1,0,1,0,,,,,,,300,200,0,const,3.5,100,left,12.00002182,-40,"[""stopped"",""stopped"",""stopped"",""stopped"",""stopped"",""stopped"",""stopped"",""stopped"",""stopped"",""stopped"",""stopped"",""stopped"",""stopped"",""stopped"",""stopped"",""stopped"",""stopped"",""stopped"",""stopped"",""stopped"",""stopped"",""stopped"",""stopped"",""stopped"",""stopped"",""stopped"",""stopped"",""stopped"",""stopped"",""stopped"",""stopped"",""stopped"",""stopped"",""stopped"",""stopped"",""stopped"",""stopped"",""stopped"",""stopped"",""stopped"",""stopped"",""stopped"",""left"",""left"",""left"",""left"",""left"",""left"",""left"",""left"",""left"",""left"",""left"",""left"",""left"",""left"",""left"",""left"",""left"",""left"",""left"",""left"",""left"",""left"",""left"",""left"",""left"",""left"",""left"",""left"",""left"",""left"",""left"",""left"",""left"",""left"",""left"",""left"",""left"",""left"",""left"",""left"",""left"",""left"",""left"",""left"",""left"",""left"",""stopped"",""stopped"",""stopped"",""stopped"",""stopped"",""stopped"",""stopped"",""stopped"",""stopped"",""stopped"",""stopped"",""stopped"",""stopped"",""stopped"",""stopped"",""down"",""down"",""down"",""down"",""down"",""down"",""down"",""down"",""down"",""down"",""down"",""down"",""down"",""down"",""down"",""down"",""down"",""down""]","[0,0,0,0,0,0,0,0,0,0,0,0,0,0,0,0,0,0,0,0,0,0,0,0,0,0,0,0,0,0,0,0,0,0,0,0,0,0,0,0,0,0,1,1,1,1,1,1,1,1,1,1,1,1,1,1,1,1,1,1,1,1,1,1,1,1,1,1,1,1,1,1,1,1,1,1,1,1,1,1,1,1,1,1,1,1,1,1,0,0,0,0,0,0,0,0,0,0,0,0,0,0,0,1,1,1,1,1,1,1,1,1,1,1,1,1,1,1,1,1,1]",701,-148.9999782,37,0,40,0,40,0,1,39,,,,,,,,,
,,,,,,,,,,,,,,,,,,,,,5df9ff4566247b000d5d9a72,23,female,2020-07-28_10h43.38.857,ProlificManual,3.2.2,Win32,60,5df9ff4566247b000d5d9a72,5f1f20d4c389060d55cb9bc4,5f1fe526b6b02a21f98e1457,,,,,,,,,,,,,11091,1,0,1,0,1,0,,,,,,,300,200,0,const,3.5,147,left,40.66668934,-67,"[""stopped"",""stopped"",""stopped"",""stopped"",""stopped"",""stopped"",""stopped"",""stopped"",""stopped"",""stopped"",""stopped"",""stopped"",""stopped"",""stopped"",""stopped"",""stopped"",""stopped"",""stopped"",""stopped"",""stopped"",""stopped"",""stopped"",""stopped"",""stopped"",""stopped"",""stopped"",""stopped"",""stopped"",""stopped"",""stopped"",""stopped"",""stopped"",""stopped"",""stopped"",""stopped"",""stopped"",""stopped"",""stopped"",""left"",""left"",""left"",""left"",""left"",""left"",""left"",""left"",""left"",""left"",""left"",""left"",""left"",""left"",""left"",""left"",""left"",""left"",""left"",""left"",""left"",""left"",""left"",""left"",""left"",""left"",""left"",""left"",""left"",""left"",""left"",""left"",""left"",""left"",""left"",""left"",""left"",""left"",""left"",""left"",""left"",""left"",""left"",""left"",""left"",""left"",""left"",""left"",""left"",""left"",""left"",""left"",""left"",""stopped"",""stopped"",""stopped"",""stopped"",""stopped"",""stopped"",""stopped"",""stopped"",""stopped"",""stopped"",""stopped"",""stopped"",""down"",""down"",""down"",""down"",""down"",""down"",""down"",""down"",""down"",""down"",""down"",""down"",""down"",""down"",""down"",""down"",""down"",""down""]","[0,0,0,0,0,0,0,0,0,0,0,0,0,0,0,0,0,0,0,0,0,0,0,0,0,0,0,0,0,0,0,0,0,0,0,0,0,0,1,1,1,1,1,1,1,1,1,1,1,1,1,1,1,1,1,1,1,1,1,1,1,1,1,1,1,1,1,1,1,1,1,1,1,1,1,1,1,1,1,1,1,1,1,1,1,1,1,1,1,1,1,0,0,0,0,0,0,0,0,0,0,0,0,1,1,1,1,1,1,1,1,1,1,1,1,1,1,1,1,1,1]",633,-144.8333107,37,0,40,0,40,0,1,39,,,,,,,,,
,,,,,,,,,,,,,,,,,,,,,5df9ff4566247b000d5d9a72,23,female,2020-07-28_10h43.38.857,ProlificManual,3.2.2,Win32,60,5df9ff4566247b000d5d9a72,5f1f20d4c389060d55cb9bc4,5f1fe526b6b02a21f98e1457,,,,,,,,,,,,,7546,1,0,1,0,1,0,,,,,,,200,100,0,const,3.5,106,left,6.666688323,23,"[""stopped"",""stopped"",""stopped"",""stopped"",""stopped"",""stopped"",""stopped"",""stopped"",""stopped"",""stopped"",""stopped"",""stopped"",""stopped"",""stopped"",""stopped"",""stopped"",""stopped"",""down"",""down"",""down"",""down"",""down"",""down"",""down"",""down"",""down"",""down"",""down"",""down"",""down"",""down"",""down"",""down"",""down"",""down"",""down"",""down"",""down"",""down"",""down"",""down"",""down"",""down"",""left"",""stopped"",""stopped"",""stopped"",""stopped"",""stopped"",""stopped"",""stopped"",""stopped"",""stopped"",""stopped"",""stopped"",""stopped"",""stopped"",""stopped"",""stopped"",""stopped"",""stopped"",""stopped"",""stopped"",""stopped"",""stopped"",""stopped"",""stopped"",""left"",""left"",""left"",""left"",""left"",""left"",""left"",""left"",""left"",""left"",""left"",""left"",""left"",""left"",""left"",""left"",""left""]","[0,0,0,0,0,0,0,0,0,0,0,0,0,0,0,0,0,1,1,1,1,1,1,1,1,1,1,1,1,1,1,1,1,1,1,1,1,1,1,1,1,1,1,1,0,0,0,0,0,0,0,0,0,0,0,0,0,0,0,0,0,0,0,0,0,0,0,1,1,1,1,1,1,1,1,1,1,1,1,1,1,1,1,1]",298,-56.33331168,9,1,40,0,40,0,1,39,,,,,,,,,
,,,,,,,,,,,,,,,,,,,,,5df9ff4566247b000d5d9a72,23,female,2020-07-28_10h43.38.857,ProlificManual,3.2.2,Win32,60,5df9ff4566247b000d5d9a72,5f1f20d4c389060d55cb9bc4,5f1fe526b6b02a21f98e1457,,,,,,,,,,,,,9101,1,0,1,0,1,0,,,,,,,400,300,0,const,3.5,110,right,75.33335704,-2,"[""stopped"",""stopped"",""stopped"",""stopped"",""stopped"",""stopped"",""stopped"",""stopped"",""stopped"",""stopped"",""stopped"",""stopped"",""stopped"",""stopped"",""stopped"",""stopped"",""stopped"",""stopped"",""stopped"",""stopped"",""stopped"",""stopped"",""down"",""down"",""down"",""down"",""down"",""down"",""down"",""down"",""down"",""down"",""down"",""down"",""down"",""down"",""down"",""down"",""down"",""down"",""down"",""down"",""down"",""stopped"",""stopped"",""stopped"",""stopped"",""stopped"",""stopped"",""stopped"",""stopped"",""stopped"",""stopped"",""stopped"",""stopped"",""stopped"",""stopped"",""stopped"",""stopped"",""stopped"",""stopped"",""stopped"",""stopped"",""stopped"",""stopped"",""stopped"",""stopped"",""stopped"",""stopped"",""stopped"",""stopped"",""stopped"",""stopped"",""stopped"",""stopped"",""stopped"",""stopped"",""stopped"",""stopped"",""stopped"",""stopped"",""stopped"",""stopped"",""right"",""right"",""right"",""right"",""right"",""right"",""right"",""right"",""right"",""right"",""right"",""right"",""right"",""right"",""right"",""right"",""right"",""right"",""right"",""right"",""right"",""right"",""right"",""right"",""right"",""right"",""right"",""right"",""right"",""right"",""right"",""right"",""right"",""right"",""right"",""right"",""right"",""right""]","[0,0,0,0,0,0,0,0,0,0,0,0,0,0,0,0,0,0,0,0,0,0,1,1,1,1,1,1,1,1,1,1,1,1,1,1,1,1,1,1,1,1,1,0,0,0,0,0,0,0,0,0,0,0,0,0,0,0,0,0,0,0,0,0,0,0,0,0,0,0,0,0,0,0,0,0,0,0,0,0,0,0,0,1,1,1,1,1,1,1,1,1,1,1,1,1,1,1,1,1,1,1,1,1,1,1,1,1,1,1,1,1,1,1,1,1,1,1,1,1,1]",367,208.333357,26.5,0,40,0,40,0,1,39,,,,,,,,,
,,,,,,,,,,,,,,,,,,,,,5df9ff4566247b000d5d9a72,23,female,2020-07-28_10h43.38.857,ProlificManual,3.2.2,Win32,60,5df9ff4566247b000d5d9a72,5f1f20d4c389060d55cb9bc4,5f1fe526b6b02a21f98e1457,,,,,,,,,,,,,6496,1,0,1,0,1,0,,,,,,,400,300,0,const,3.5,65,left,24.00002217,64,"[""stopped"",""stopped"",""stopped"",""stopped"",""stopped"",""stopped"",""stopped"",""stopped"",""stopped"",""stopped"",""stopped"",""stopped"",""stopped"",""stopped"",""stopped"",""stopped"",""stopped"",""stopped"",""stopped"",""stopped"",""stopped"",""stopped"",""stopped"",""stopped"",""stopped"",""stopped"",""stopped"",""stopped"",""stopped"",""stopped"",""stopped"",""stopped"",""stopped"",""stopped"",""stopped"",""stopped"",""stopped"",""stopped"",""left"",""left"",""left"",""left"",""left"",""left"",""left"",""left"",""left"",""left"",""left"",""left"",""left"",""left"",""left"",""left"",""left"",""left"",""left"",""left"",""left"",""left"",""left"",""left"",""left"",""left"",""left"",""left"",""left"",""left"",""left"",""left"",""left"",""left"",""left"",""left"",""left"",""left"",""left"",""left"",""left"",""left"",""left"",""left"",""left"",""left"",""left"",""left"",""left"",""left"",""left"",""left"",""left"",""left"",""left"",""left"",""left"",""left"",""left"",""left"",""left"",""left"",""left"",""left"",""left"",""left"",""left"",""left"",""left"",""left"",""left"",""left"",""left"",""left"",""left"",""left"",""left"",""left"",""left"",""left"",""left"",""left"",""left""]","[0,0,0,0,0,0,0,0,0,0,0,0,0,0,0,0,0,0,0,0,0,0,0,0,0,0,0,0,0,0,0,0,0,0,0,0,0,0,1,1,1,1,1,1,1,1,1,1,1,1,1,1,1,1,1,1,1,1,1,1,1,1,1,1,1,1,1,1,1,1,1,1,1,1,1,1,1,1,1,1,1,1,1,1,1,1,1,1,1,1,1,1,1,1,1,1,1,1,1,1,1,1,1,1,1,1,1,1,1,1,1,1,1,1,1,1,1,1,1,1,1]",634,-266.4999778,100,0,40,0,40,0,1,39,,,,,,,,,
,,,,,,,,,,,,,,,,,,,,,5df9ff4566247b000d5d9a72,23,female,2020-07-28_10h43.38.857,ProlificManual,3.2.2,Win32,60,5df9ff4566247b000d5d9a72,5f1f20d4c389060d55cb9bc4,5f1fe526b6b02a21f98e1457,,,,,,,,,,,,,8166,1,0,1,0,1,0,,,,,,,300,200,0,const,3.5,140,right,-64.66660645,-22,"[""stopped"",""stopped"",""stopped"",""stopped"",""stopped"",""stopped"",""stopped"",""stopped"",""stopped"",""stopped"",""stopped"",""stopped"",""stopped"",""stopped"",""stopped"",""stopped"",""stopped"",""down"",""down"",""down"",""down"",""down"",""down"",""down"",""down"",""down"",""down"",""down"",""down"",""down"",""down"",""down"",""down"",""down"",""down"",""down"",""down"",""down"",""down"",""down"",""down"",""down"",""stopped"",""stopped"",""stopped"",""stopped"",""stopped"",""stopped"",""stopped"",""stopped"",""stopped"",""stopped"",""right"",""right"",""right"",""right"",""right"",""right"",""right"",""right"",""right"",""right"",""right"",""right"",""right"",""right"",""right"",""right"",""right"",""right"",""right"",""right"",""right"",""right"",""right"",""right"",""right"",""right"",""right"",""right"",""right"",""right"",""right"",""right"",""right"",""right"",""right"",""right"",""right"",""right"",""right"",""right"",""right"",""right"",""right"",""right"",""right"",""right"",""right"",""right"",""right"",""right"",""right"",""right"",""right"",""right"",""right"",""right"",""right"",""right"",""right"",""right"",""right"",""right"",""right"",""right""]","[0,0,0,0,0,0,0,0,0,0,0,0,0,0,0,0,0,1,1,1,1,1,1,1,1,1,1,1,1,1,1,1,1,1,1,1,1,1,1,1,1,1,0,0,0,0,0,0,0,0,0,0,1,1,1,1,1,1,1,1,1,1,1,1,1,1,1,1,1,1,1,1,1,1,1,1,1,1,1,1,1,1,1,1,1,1,1,1,1,1,1,1,1,1,1,1,1,1,1,1,1,1,1,1,1,1,1,1,1,1,1,1,1,1,1,1]",283,159.3333936,12.5,1,40,0,40,0,1,39,,,,,,,,,
,,,,,,,,,,,,,,,,,,,,,5df9ff4566247b000d5d9a72,23,female,2020-07-28_10h43.38.857,ProlificManual,3.2.2,Win32,60,5df9ff4566247b000d5d9a72,5f1f20d4c389060d55cb9bc4,5f1fe526b6b02a21f98e1457,,,,,,,,,,,,,5932,1,0,1,0,1,0,,,,,,,300,200,0,const,3.5,120,left,-2.666645288,-42,"[""stopped"",""stopped"",""stopped"",""stopped"",""stopped"",""stopped"",""stopped"",""stopped"",""stopped"",""stopped"",""stopped"",""stopped"",""stopped"",""stopped"",""stopped"",""stopped"",""stopped"",""stopped"",""stopped"",""stopped"",""stopped"",""stopped"",""stopped"",""stopped"",""stopped"",""stopped"",""down"",""down"",""down"",""down"",""down"",""down"",""down"",""down"",""down"",""down"",""down"",""down"",""down"",""down"",""down"",""down"",""down"",""down"",""down"",""down"",""down"",""down"",""down"",""stopped"",""stopped"",""stopped"",""stopped"",""stopped"",""stopped"",""stopped"",""stopped"",""stopped"",""stopped"",""stopped"",""left"",""left"",""left"",""left"",""left"",""left"",""left"",""left"",""left"",""left"",""left"",""left"",""left"",""left"",""left"",""left"",""left"",""left"",""left"",""left"",""left"",""left"",""left"",""left"",""left"",""left"",""left"",""left"",""left"",""left"",""left"",""left"",""left"",""left"",""left"",""left"",""left"",""left"",""left"",""left"",""left"",""left"",""left"",""left"",""left""]","[0,0,0,0,0,0,0,0,0,0,0,0,0,0,0,0,0,0,0,0,0,0,0,0,0,0,1,1,1,1,1,1,1,1,1,1,1,1,1,1,1,1,1,1,1,1,1,1,1,0,0,0,0,0,0,0,0,0,0,0,1,1,1,1,1,1,1,1,1,1,1,1,1,1,1,1,1,1,1,1,1,1,1,1,1,1,1,1,1,1,1,1,1,1,1,1,1,1,1,1,1,1,1,1,1]",432,-160.1666453,19.5,1,40,0,40,0,1,39,,,,,,,,,
,,,,,,,,,,,,,,,,,,,,,5df9ff4566247b000d5d9a72,23,female,2020-07-28_10h43.38.857,ProlificManual,3.2.2,Win32,60,5df9ff4566247b000d5d9a72,5f1f20d4c389060d55cb9bc4,5f1fe526b6b02a21f98e1457,,,,,,,,,,,,,8487,1,0,1,0,1,0,,,,,,,200,100,0,const,3.5,118,right,2.666688204,-18,"[""stopped"",""stopped"",""stopped"",""stopped"",""stopped"",""stopped"",""stopped"",""stopped"",""stopped"",""stopped"",""stopped"",""stopped"",""stopped"",""stopped"",""stopped"",""stopped"",""stopped"",""down"",""down"",""down"",""down"",""down"",""down"",""down"",""down"",""down"",""down"",""down"",""down"",""down"",""down"",""down"",""down"",""down"",""down"",""down"",""down"",""down"",""down"",""down"",""down"",""down"",""down"",""down"",""down"",""stopped"",""stopped"",""stopped"",""stopped"",""stopped"",""stopped"",""stopped"",""stopped"",""stopped"",""stopped"",""stopped"",""right"",""right"",""right"",""right"",""right"",""right"",""right"",""right"",""right"",""right"",""right"",""right"",""right"",""right"",""right""]","[0,0,0,0,0,0,0,0,0,0,0,0,0,0,0,0,0,1,1,1,1,1,1,1,1,1,1,1,1,1,1,1,1,1,1,1,1,1,1,1,1,1,1,1,1,0,0,0,0,0,0,0,0,0,0,0,1,1,1,1,1,1,1,1,1,1,1,1,1,1,1]",283,55.1666882,2,1,40,0,40,0,1,39,,,,,,,,,
,,,,,,,,,,,,,,,,,,,,,5df9ff4566247b000d5d9a72,23,female,2020-07-28_10h43.38.857,ProlificManual,3.2.2,Win32,60,5df9ff4566247b000d5d9a72,5f1f20d4c389060d55cb9bc4,5f1fe526b6b02a21f98e1457,,,,,,,,,,,,,5861,1,0,1,0,1,0,,,,,,,200,100,0,const,3.5,85,left,-2.666645288,20,"[""stopped"",""stopped"",""stopped"",""stopped"",""stopped"",""stopped"",""stopped"",""stopped"",""stopped"",""stopped"",""stopped"",""stopped"",""stopped"",""stopped"",""stopped"",""stopped"",""stopped"",""stopped"",""down"",""down"",""down"",""down"",""down"",""down"",""down"",""down"",""down"",""down"",""down"",""down"",""down"",""down"",""down"",""down"",""down"",""down"",""down"",""down"",""down"",""down"",""down"",""stopped"",""stopped"",""stopped"",""stopped"",""stopped"",""stopped"",""stopped"",""stopped"",""stopped"",""stopped"",""stopped"",""stopped"",""left"",""left"",""left"",""left"",""left"",""left"",""left"",""left"",""left"",""left"",""left"",""left"",""left"",""left"",""left"",""left"",""left""]","[0,0,0,0,0,0,0,0,0,0,0,0,0,0,0,0,0,0,1,1,1,1,1,1,1,1,1,1,1,1,1,1,1,1,1,1,1,1,1,1,1,0,0,0,0,0,0,0,0,0,0,0,0,1,1,1,1,1,1,1,1,1,1,1,1,1,1,1,1,1]",299,-62.16664529,19.5,1,40,0,40,0,1,39,,,,,,,,,
,,,,,,,,,,,,,,,,,,,,,5df9ff4566247b000d5d9a72,23,female,2020-07-28_10h43.38.857,ProlificManual,3.2.2,Win32,60,5df9ff4566247b000d5d9a72,5f1f20d4c389060d55cb9bc4,5f1fe526b6b02a21f98e1457,,,,,,,,,,,,,6522,1,0,1,0,1,0,,,,,,,200,100,0,const,3.5,86,left,-9.99997884,27,"[""stopped"",""stopped"",""stopped"",""stopped"",""stopped"",""stopped"",""stopped"",""stopped"",""stopped"",""stopped"",""stopped"",""stopped"",""stopped"",""stopped"",""stopped"",""stopped"",""stopped"",""stopped"",""stopped"",""down"",""down"",""down"",""down"",""down"",""down"",""down"",""down"",""down"",""down"",""down"",""down"",""down"",""down"",""down"",""down"",""down"",""down"",""down"",""down"",""down"",""down"",""down"",""down"",""down"",""down"",""stopped"",""stopped"",""stopped"",""stopped"",""stopped"",""stopped"",""stopped"",""stopped"",""stopped"",""stopped"",""stopped"",""stopped"",""left"",""left"",""left"",""left"",""left"",""left"",""left"",""left"",""left"",""left"",""left"",""left"",""left"",""left""]","[0,0,0,0,0,0,0,0,0,0,0,0,0,0,0,0,0,0,0,1,1,1,1,1,1,1,1,1,1,1,1,1,1,1,1,1,1,1,1,1,1,1,1,1,1,0,0,0,0,0,0,0,0,0,0,0,0,1,1,1,1,1,1,1,1,1,1,1,1,1,1]",315,-58.99997884,9,1,40,0,40,0,1,39,,,,,,,,,
,,,,,,,,,,,,,,,,,,,,,5df9ff4566247b000d5d9a72,23,female,2020-07-28_10h43.38.857,ProlificManual,3.2.2,Win32,60,5df9ff4566247b000d5d9a72,5f1f20d4c389060d55cb9bc4,5f1fe526b6b02a21f98e1457,,,,,,,,,,,,,7980,1,0,1,0,1,0,,,,,,,400,300,0,const,3.5,79,left,82.66669059,104,"[""stopped"",""stopped"",""stopped"",""stopped"",""stopped"",""stopped"",""stopped"",""stopped"",""stopped"",""stopped"",""stopped"",""stopped"",""stopped"",""stopped"",""stopped"",""stopped"",""stopped"",""stopped"",""stopped"",""down"",""down"",""down"",""down"",""down"",""down"",""down"",""down"",""down"",""down"",""down"",""down"",""down"",""down"",""down"",""down"",""down"",""down"",""down"",""down"",""down"",""down"",""down"",""down"",""down"",""stopped"",""stopped"",""stopped"",""stopped"",""stopped"",""stopped"",""stopped"",""stopped"",""stopped"",""left"",""left"",""left"",""left"",""left"",""left"",""left"",""left"",""left"",""left"",""left"",""left"",""left"",""left"",""left"",""left"",""left"",""left"",""left"",""left"",""left"",""left"",""left"",""left"",""left"",""left"",""left"",""left"",""left"",""left"",""left"",""left"",""left"",""left"",""left"",""left"",""left"",""left"",""left"",""left"",""left"",""left"",""left"",""left"",""left"",""left"",""left"",""left"",""left"",""left"",""left"",""left"",""left"",""left"",""left"",""left"",""left"",""left"",""left"",""left"",""left"",""left"",""left"",""left"",""left"",""left"",""left"",""left""]","[0,0,0,0,0,0,0,0,0,0,0,0,0,0,0,0,0,0,0,1,1,1,1,1,1,1,1,1,1,1,1,1,1,1,1,1,1,1,1,1,1,1,1,1,0,0,0,0,0,0,0,0,0,1,1,1,1,1,1,1,1,1,1,1,1,1,1,1,1,1,1,1,1,1,1,1,1,1,1,1,1,1,1,1,1,1,1,1,1,1,1,1,1,1,1,1,1,1,1,1,1,1,1,1,1,1,1,1,1,1,1,1,1,1,1,1,1,1,1,1,1]",317,-155.3333094,12.5,0,40,0,40,0,1,39,,,,,,,,,
,,,,,,,,,,,,,,,,,,,,,5df9ff4566247b000d5d9a72,23,female,2020-07-28_10h43.38.857,ProlificManual,3.2.2,Win32,60,5df9ff4566247b000d5d9a72,5f1f20d4c389060d55cb9bc4,5f1fe526b6b02a21f98e1457,,,,,,,,,,,,,9493,1,0,1,0,1,0,,,,,,,500,400,0,const,3.5,122,right,-98.66660746,142,"[""stopped"",""stopped"",""stopped"",""stopped"",""stopped"",""stopped"",""stopped"",""stopped"",""stopped"",""stopped"",""stopped"",""stopped"",""stopped"",""stopped"",""stopped"",""stopped"",""stopped"",""stopped"",""stopped"",""stopped"",""stopped"",""stopped"",""down"",""down"",""down"",""down"",""down"",""down"",""down"",""down"",""down"",""down"",""down"",""down"",""down"",""down"",""down"",""down"",""down"",""down"",""down"",""down"",""down"",""down"",""down"",""down"",""down"",""down"",""down"",""stopped"",""stopped"",""stopped"",""stopped"",""stopped"",""stopped"",""stopped"",""stopped"",""stopped"",""stopped"",""stopped"",""stopped"",""right"",""right"",""right"",""right"",""right"",""right"",""right"",""right"",""right"",""right"",""right"",""right"",""right"",""right"",""right"",""right"",""right"",""right"",""right"",""right"",""right"",""right"",""right"",""right"",""right"",""right"",""right"",""right"",""right"",""right"",""right"",""right"",""right"",""right"",""right"",""right"",""right"",""right"",""right"",""right"",""right"",""right"",""right"",""right"",""right"",""right"",""right"",""right"",""right"",""right"",""right"",""right"",""right"",""right"",""right"",""right"",""right"",""right"",""right"",""right""]","[0,0,0,0,0,0,0,0,0,0,0,0,0,0,0,0,0,0,0,0,0,0,1,1,1,1,1,1,1,1,1,1,1,1,1,1,1,1,1,1,1,1,1,1,1,1,1,1,1,0,0,0,0,0,0,0,0,0,0,0,0,1,1,1,1,1,1,1,1,1,1,1,1,1,1,1,1,1,1,1,1,1,1,1,1,1,1,1,1,1,1,1,1,1,1,1,1,1,1,1,1,1,1,1,1,1,1,1,1,1,1,1,1,1,1,1,1,1,1,1,1]",375,111.3333925,5.5,0,40,0,40,0,1,39,,,,,,,,,
,,,,,,,,,,,,,,,,,,,,,5df9ff4566247b000d5d9a72,23,female,2020-07-28_10h43.38.857,ProlificManual,3.2.2,Win32,60,5df9ff4566247b000d5d9a72,5f1f20d4c389060d55cb9bc4,5f1fe526b6b02a21f98e1457,,,,,,,,,,,,,5957,1,0,1,0,1,0,,,,,,,200,100,0,const,3.5,104,right,0.666688144,-49,"[""stopped"",""stopped"",""stopped"",""stopped"",""stopped"",""stopped"",""stopped"",""stopped"",""stopped"",""stopped"",""stopped"",""stopped"",""stopped"",""stopped"",""stopped"",""stopped"",""down"",""down"",""down"",""down"",""down"",""down"",""down"",""down"",""down"",""down"",""down"",""down"",""down"",""down"",""down"",""down"",""down"",""down"",""down"",""down"",""down"",""down"",""down"",""down"",""down"",""down"",""down"",""down"",""down"",""down"",""down"",""stopped"",""stopped"",""stopped"",""stopped"",""stopped"",""stopped"",""stopped"",""stopped"",""stopped"",""stopped"",""stopped"",""stopped"",""stopped"",""right"",""right"",""right"",""right"",""right"",""right"",""right"",""right"",""right"",""right"",""right"",""right"",""right"",""right"",""right"",""right""]","[0,0,0,0,0,0,0,0,0,0,0,0,0,0,0,0,1,1,1,1,1,1,1,1,1,1,1,1,1,1,1,1,1,1,1,1,1,1,1,1,1,1,1,1,1,1,1,0,0,0,0,0,0,0,0,0,0,0,0,0,1,1,1,1,1,1,1,1,1,1,1,1,1,1,1,1]",269,56.66668814,-8.5,1,40,0,40,0,1,39,,,,,,,,,
,,,,,,,,,,,,,,,,,,,,,5df9ff4566247b000d5d9a72,23,female,2020-07-28_10h43.38.857,ProlificManual,3.2.2,Win32,60,5df9ff4566247b000d5d9a72,5f1f20d4c389060d55cb9bc4,5f1fe526b6b02a21f98e1457,,,,,,,,,,,,,6641,1,0,1,0,1,0,,,,,,,400,300,0,const,3.5,80,left,-5.333312035,72,"[""stopped"",""stopped"",""stopped"",""stopped"",""stopped"",""stopped"",""stopped"",""stopped"",""stopped"",""stopped"",""stopped"",""stopped"",""stopped"",""stopped"",""stopped"",""stopped"",""stopped"",""down"",""down"",""down"",""down"",""down"",""down"",""down"",""down"",""down"",""down"",""down"",""down"",""down"",""down"",""down"",""down"",""down"",""down"",""down"",""down"",""down"",""down"",""down"",""down"",""down"",""down"",""stopped"",""stopped"",""stopped"",""stopped"",""stopped"",""stopped"",""stopped"",""stopped"",""stopped"",""stopped"",""stopped"",""stopped"",""stopped"",""stopped"",""stopped"",""stopped"",""stopped"",""stopped"",""stopped"",""stopped"",""left"",""left"",""left"",""left"",""left"",""left"",""left"",""left"",""left"",""left"",""left"",""left"",""left"",""left"",""left"",""left"",""left"",""left"",""left"",""left"",""left"",""left"",""left"",""left"",""left"",""left"",""left"",""left"",""left"",""left"",""left"",""left"",""left"",""left"",""left"",""left"",""left"",""left"",""left"",""left"",""left"",""left"",""left"",""left"",""left"",""left"",""left"",""left"",""left"",""left"",""left"",""left"",""left"",""left"",""left"",""left"",""left"",""left""]","[0,0,0,0,0,0,0,0,0,0,0,0,0,0,0,0,0,1,1,1,1,1,1,1,1,1,1,1,1,1,1,1,1,1,1,1,1,1,1,1,1,1,1,0,0,0,0,0,0,0,0,0,0,0,0,0,0,0,0,0,0,0,0,1,1,1,1,1,1,1,1,1,1,1,1,1,1,1,1,1,1,1,1,1,1,1,1,1,1,1,1,1,1,1,1,1,1,1,1,1,1,1,1,1,1,1,1,1,1,1,1,1,1,1,1,1,1,1,1,1,1]",282,-208.333312,9,0,40,0,40,0,1,39,,,,,,,,,
