true_x_res,true_y_res,x_adjustment,y_adjustment,Params_TravelTime,Params_yOffset,Params_Reach,Params_ScreenWidth,Params_ScreenHeight,Params_Hz,Params_HzScale,Params_conf_linewidth,params_consent,Consentmouse.x,Consentmouse.y,Consentmouse.leftButton,Consentmouse.midButton,Consentmouse.rightButton,WelcomeEscape.keys,WelcomeEscape.rt,EndDemoExplantion.keys,EndDemoExplantion.rt,Demo_speedCond,Demo_delta,Demo_xposTarget,Demo_yposTarget,Demo_Delay,Demo_AvSpeed,Demo_Success,Demo_motion,Demo_Click,Demo_finalX,Demo_finalY,DemoFeedBackMoveOn.keys,DemoFeedBackMoveOn.rt,BlockLoop.thisRepN,BlockLoop.thisTrialN,BlockLoop.thisN,BlockLoop.thisIndex,BlockLoop.ran,BlockLoop.order,DemoLoop.thisRepN,DemoLoop.thisTrialN,DemoLoop.thisN,DemoLoop.thisIndex,DemoLoop.ran,DemoLoop.order,participant,Age,Gender,date,expName,psychopyVersion,frameRate,InstSkip.keys,InstSkip.rt,MoveOn.keys,MoveOn.rt,Decision_Delta,Decision_xposTarget,Decision_yposTarget,Decision_SpeedCond,Decision_AvSpeed,Decision_delay,Decision_targetSide,Decision_placement,Decision_initplace,AvatarMouse.x,AvatarMouse.y,AvatarMouse.leftButton,AvatarMouse.midButton,AvatarMouse.rightButton,AvatarMouse.time,PlacingKeyboard.keys,Decision_Driving,Decision_Click,Decision_RTms,Decision_finalX,Decision_finalY,Decision_success,TrialMoveOn.keys,TrialMoveOn.rt,DecisionTrialLoop.thisRepN,DecisionTrialLoop.thisTrialN,DecisionTrialLoop.thisN,DecisionTrialLoop.thisIndex,DecisionTrialLoop.ran,DecisionTrialLoop.order,key_resp.keys,key_resp.rt,Conf_mouse.x,Conf_mouse.y,Conf_mouse.leftButton,Conf_mouse.midButton,Conf_mouse.rightButton,Conf_mouse.time,Conf_resp.keys,Conf_resp.rt,Confidence_Delta,Confidence_resp,ConfidenceLoop.thisRepN,ConfidenceLoop.thisTrialN,ConfidenceLoop.thisN,ConfidenceLoop.thisIndex,ConfidenceLoop.ran,ConfidenceLoop.order
1920,898,1,1,120,100,30,1200,600,60,1,300,Agreed,56,-279.5,1,0,0,space,6.427000046,space,2.013999939,const,400,-300,0,120,3.5,0,[],[],0,100,space,0.596999884,1,0,1,0,1,0,12,0,12,0,1,11,Pilot1,,,2020-06-25_10h49.51.459,AvatarExp_SD,3.1.2,60,,,,,,,,,,,,,,,,,,,,,,,,,,,,,,,,,,,,,,,,,,,,,,,,,,,,
,,,,,,,,,,,,,,,,,,,,,,,200,-100,0,85,3.5,1,[],[],0,100,space,2.163000107,1,0,1,0,1,0,12,0,12,0,1,11,Pilot1,,,2020-06-25_10h49.51.459,AvatarExp_SD,3.1.2,60,,,,,,,,,,,,,,,,,,,,,,,,,,,,,,,,,,,,,,,,,,,,,,,,,,,,
,,,,,,,,,,,,,,,,,,,,,,,500,-400,0,93,3.5,0,[],[],0,100,space,28.87900019,1,0,1,0,1,0,12,0,12,0,1,11,Pilot1,,,2020-06-25_10h49.51.459,AvatarExp_SD,3.1.2,60,,,,,,,,,,,,,,,,,,,,,,,,,,,,,,,,,,,,,,,,,,,,,,,,,,,,
,,,,,,,,,,,,,,,,,,,,,,,200,-100,0,74,3.5,1,[],[],0,100,space,12.44400001,1,0,1,0,1,0,12,0,12,0,1,11,Pilot1,,,2020-06-25_10h49.51.459,AvatarExp_SD,3.1.2,60,,,,,,,,,,,,,,,,,,,,,,,,,,,,,,,,,,,,,,,,,,,,,,,,,,,,
,,,,,,,,,,,,,,,,,,,,,,,300,-200,0,69,3.5,1,[],[],0,100,space,0.67599988,1,0,1,0,1,0,12,0,12,0,1,11,Pilot1,,,2020-06-25_10h49.51.459,AvatarExp_SD,3.1.2,60,,,,,,,,,,,,,,,,,,,,,,,,,,,,,,,,,,,,,,,,,,,,,,,,,,,,
,,,,,,,,,,,,,,,,,,,,,,,500,400,0,110,3.5,0,[],[],0,100,space,0.481000185,1,0,1,0,1,0,12,0,12,0,1,11,Pilot1,,,2020-06-25_10h49.51.459,AvatarExp_SD,3.1.2,60,,,,,,,,,,,,,,,,,,,,,,,,,,,,,,,,,,,,,,,,,,,,,,,,,,,,
,,,,,,,,,,,,,,,,,,,,,,,400,-300,0,91,3.5,0,[],[],0,100,space,0.495999813,1,0,1,0,1,0,12,0,12,0,1,11,Pilot1,,,2020-06-25_10h49.51.459,AvatarExp_SD,3.1.2,60,,,,,,,,,,,,,,,,,,,,,,,,,,,,,,,,,,,,,,,,,,,,,,,,,,,,
,,,,,,,,,,,,,,,,,,,,,,,200,100,0,71,3.5,1,[],[],0,100,space,0.282999992,1,0,1,0,1,0,12,0,12,0,1,11,Pilot1,,,2020-06-25_10h49.51.459,AvatarExp_SD,3.1.2,60,,,,,,,,,,,,,,,,,,,,,,,,,,,,,,,,,,,,,,,,,,,,,,,,,,,,
,,,,,,,,,,,,,,,,,,,,,,,400,300,0,87,3.5,0,[],[],0,100,space,0.097000122,1,0,1,0,1,0,12,0,12,0,1,11,Pilot1,,,2020-06-25_10h49.51.459,AvatarExp_SD,3.1.2,60,,,,,,,,,,,,,,,,,,,,,,,,,,,,,,,,,,,,,,,,,,,,,,,,,,,,
,,,,,,,,,,,,,,,,,,,,,,,300,200,0,130,3.5,1,[],[],0,100,space,0.097000122,1,0,1,0,1,0,12,0,12,0,1,11,Pilot1,,,2020-06-25_10h49.51.459,AvatarExp_SD,3.1.2,60,,,,,,,,,,,,,,,,,,,,,,,,,,,,,,,,,,,,,,,,,,,,,,,,,,,,
,,,,,,,,,,,,,,,,,,,,,,,500,-400,0,84,3.5,0,[],[],0,100,space,0.163000107,1,0,1,0,1,0,12,0,12,0,1,11,Pilot1,,,2020-06-25_10h49.51.459,AvatarExp_SD,3.1.2,60,,,,,,,,,,,,,,,,,,,,,,,,,,,,,,,,,,,,,,,,,,,,,,,,,,,,
,,,,,,,,,,,,,,,,,,,,,,,300,200,0,84,3.5,1,[],[],0,100,space,0.130000114,1,0,1,0,1,0,12,0,12,0,1,11,Pilot1,,,2020-06-25_10h49.51.459,AvatarExp_SD,3.1.2,60,,,,,,,,,,,,,,,,,,,,,,,,,,,,,,,,,,,,,,,,,,,,,,,,,,,,
,,,,,,,,,,,,,,,,,,,,,,,,,,,,,,,,,,,1,0,1,0,1,0,,,,,,,Pilot1,,,2020-06-25_10h49.51.459,AvatarExp_SD,3.1.2,60,space,0.212999821,space,0.014000177,200,100,0,const,3.5,117,left,-7,24,"[-63,-63,-63,-63,-63,-63,-63,-63,-63,-63,-63,-63,-63,-63,-63,-63,-63,-63,-63,-63,-63,-63,-63,-63,-58,-54,-48,-43,-34,-22,-12,-1,10,17,20,21,22,22,22,22,21,21,20,18,15,12,8,3,-1,-4,-5,-5,-5,-6,-6,-7,-7,-7,-7,-7,-7,-7,-7,-7,-7,-7,-7,-7,-7,-7,-5,-3,-3,-3,-3,-3,0,7,15,19,22,23,24,24,25,25,25,25,25,25,25,25,23,22,21,19,18,18,18,18]","[-144.5,-144.5,-144.5,-144.5,-144.5,-144.5,-144.5,-144.5,-144.5,-144.5,-144.5,-144.5,-144.5,-144.5,-144.5,-144.5,-144.5,-144.5,-144.5,-144.5,-144.5,-144.5,-144.5,-144.5,-137.5,-125.5,-106.5,-86.5,-64.5,-36.5,-9.5,16.5,39.5,52.5,58.5,63.5,65.5,66.5,67.5,69.5,71.5,74.5,78.5,80.5,82.5,84.5,87.5,90.5,94.5,96.5,98.5,100.5,101.5,102.5,102.5,102.5,102.5,102.5,102.5,103.5,103.5,103.5,103.5,103.5,103.5,103.5,103.5,103.5,102.5,96.5,86.5,71.5,56.5,37.5,10.5,-15.5,-42.5,-74.5,-102.5,-122.5,-139.5,-148.5,-154.5,-158.5,-163.5,-167.5,-172.5,-175.5,-177.5,-181.5,-183.5,-184.5,-184.5,-184.5,-184.5,-184.5,-184.5,-185.5,-185.5,-185.5]","[0,0,0,0,0,0,0,0,0,0,0,0,0,0,0,0,0,0,0,0,0,0,0,0,0,0,0,0,0,0,0,0,0,0,0,0,0,0,0,0,0,0,0,0,0,0,0,0,0,0,0,0,0,0,0,0,0,0,1,1,1,1,0,0,0,0,0,0,0,0,0,0,0,0,0,0,0,0,0,0,0,0,0,0,0,0,0,0,0,0,0,0,0,0,0,0,0,0,0,1]","[0,0,0,0,0,0,0,0,0,0,0,0,0,0,0,0,0,0,0,0,0,0,0,0,0,0,0,0,0,0,0,0,0,0,0,0,0,0,0,0,0,0,0,0,0,0,0,0,0,0,0,0,0,0,0,0,0,0,0,0,0,0,0,0,0,0,0,0,0,0,0,0,0,0,0,0,0,0,0,0,0,0,0,0,0,0,0,0,0,0,0,0,0,0,0,0,0,0,0,0]","[0,0,0,0,0,0,0,0,0,0,0,0,0,0,0,0,0,0,0,0,0,0,0,0,0,0,0,0,0,0,0,0,0,0,0,0,0,0,0,0,0,0,0,0,0,0,0,0,0,0,0,0,0,0,0,0,0,0,0,0,0,0,0,0,0,0,0,0,0,0,0,0,0,0,0,0,0,0,0,0,0,0,0,0,0,0,0,0,0,0,0,0,0,0,0,0,0,0,0,0]","[0.0009999275207519531,0.02200007438659668,0.03900003433227539,0.0559999942779541,0.07200002670288086,0.08899998664855957,0.10599994659423828,0.12299990653991699,0.13899993896484375,0.15599989891052246,0.17199993133544922,0.18899989128112793,0.20600008964538574,0.2219998836517334,0.2390000820159912,0.2560000419616699,0.27300000190734863,0.2890000343322754,0.3059999942779541,0.3229999542236328,0.33899998664855957,0.3559999465942383,0.37199997901916504,0.38899993896484375,0.4230000972747803,0.43899989128112793,0.45600008964538574,0.47300004959106445,0.4890000820159912,0.5060000419616699,0.5230000019073486,0.5390000343322754,0.5559999942779541,0.5729999542236328,0.5889999866485596,0.6059999465942383,0.622999906539917,0.6389999389648438,0.6559998989105225,0.6730000972747803,0.6889998912811279,0.7060000896453857,0.7219998836517334,0.7390000820159912,0.7560000419616699,0.7730000019073486,0.7890000343322754,0.8059999942779541,0.8229999542236328,0.8399999141693115,0.8559999465942383,0.872999906539917,0.8889999389648438,0.9059998989105225,0.9219999313354492,0.9389998912811279,0.9560000896453857,0.9719998836517334,0.9890000820159912,1.00600004196167,1.0230000019073486,1.0390000343322754,1.055999994277954,1.0729999542236328,1.0889999866485596,1.1059999465942383,1.122999906539917,1.1389999389648438,1.1559998989105225,1.1730000972747803,1.190000057220459,1.2070000171661377,1.2239999771118164,1.2400000095367432,1.2569999694824219,1.2730000019073486,1.2899999618530273,1.305999994277954,1.3229999542236328,1.3399999141693115,1.3559999465942383,1.374000072479248,1.3900001049041748,1.4059998989105225,1.4230000972747803,1.440000057220459,1.4560000896453857,1.4730000495910645,1.4900000095367432,1.50600004196167,1.5230000019073486,1.5399999618530273,1.555999994277954,1.5729999542236328,1.5899999141693115,1.6059999465942383,1.624000072479248,1.6400001049041748,1.6559998989105225,1.6730000972747803]",,[],[],NaN,-73.5,-1.5,1,space,0.677000046,40,0,40,0,1,39,,,,,,,,,,,,,,,,,,
,,,,,,,,,,,,,,,,,,,,,,,,,,,,,,,,,,,1,0,1,0,1,0,,,,,,,Pilot1,,,2020-06-25_10h49.51.459,AvatarExp_SD,3.1.2,60,,,,,500,400,0,const,3.5,137,right,-312,93,"[0,0,0,0,0,0,0,0,0,0,0,0,0,0,0,0,0,0,0,0,-1,-3,-7,-10,-12,-14,-18,-26,-32,-34,-35,-35,-35,-36,-36,-38,-38,-39,-40,-42,-43,-44,-45,-45,-46,-48,-48,-48,-48,-48,-48,-48,-48,-48,-48,-48,-48,-48,-48,-48,-48,-50,-62,-91,-131,-181,-225,-263,-289,-301,-309,-312,-314,-320,-330,-340,-348,-351,-351,-351,-351,-351,-351,-351,-351,-351,-349,-346,-343,-339,-336,-331,-322,-314,-313,-313,-313,-312,-312,-312,-312,-312,-312,-312,-312,-312,-312,-307,-292,-266,-232,-202,-170,-135,-112,-101,-91,-79,-69,-60,-56,-53,-49,-39,-25,-11,-6,-3,-1,2,6,9,10,10,10,10]","[-195.5,-195.5,-195.5,-195.5,-195.5,-195.5,-195.5,-195.5,-195.5,-195.5,-195.5,-195.5,-195.5,-195.5,-195.5,-195.5,-195.5,-195.5,-195.5,-195.5,-193.5,-186.5,-169.5,-147.5,-119.5,-91.5,-59.5,-28.5,-3.5,14.5,26.5,33.5,36.5,41.5,47.5,53.5,61.5,69.5,75.5,81.5,85.5,90.5,94.5,97.5,101.5,103.5,104.5,104.5,104.5,104.5,104.5,104.5,104.5,104.5,104.5,104.5,104.5,104.5,104.5,104.5,104.5,104.5,104.5,102.5,98.5,95.5,93.5,93.5,93.5,93.5,93.5,94.5,96.5,97.5,98.5,98.5,98.5,98.5,98.5,98.5,98.5,98.5,98.5,98.5,98.5,98.5,98.5,98.5,98.5,98.5,98.5,99.5,100.5,101.5,101.5,101.5,101.5,101.5,101.5,101.5,101.5,101.5,102.5,102.5,102.5,102.5,100.5,92.5,80.5,64.5,37.5,6.5,-31.5,-71.5,-99.5,-116.5,-127.5,-136.5,-143.5,-149.5,-150.5,-152.5,-155.5,-163.5,-171.5,-177.5,-180.5,-181.5,-182.5,-184.5,-187.5,-190.5,-191.5,-191.5,-191.5,-191.5]","[0,0,0,0,0,0,0,0,0,0,0,0,0,0,0,0,0,0,0,0,0,0,0,0,0,0,0,0,0,0,0,0,0,0,0,0,0,0,0,0,0,0,0,0,0,0,0,0,0,0,0,0,0,0,0,0,0,0,0,0,0,0,0,0,0,0,0,0,0,0,0,0,0,0,0,0,0,0,0,0,0,0,0,0,0,0,0,0,0,0,0,0,0,0,0,0,0,0,0,0,1,1,1,0,0,0,0,0,0,0,0,0,0,0,0,0,0,0,0,0,0,0,0,0,0,0,0,0,0,0,0,0,0,0,0,1]","[0,0,0,0,0,0,0,0,0,0,0,0,0,0,0,0,0,0,0,0,0,0,0,0,0,0,0,0,0,0,0,0,0,0,0,0,0,0,0,0,0,0,0,0,0,0,0,0,0,0,0,0,0,0,0,0,0,0,0,0,0,0,0,0,0,0,0,0,0,0,0,0,0,0,0,0,0,0,0,0,0,0,0,0,0,0,0,0,0,0,0,0,0,0,0,0,0,0,0,0,0,0,0,0,0,0,0,0,0,0,0,0,0,0,0,0,0,0,0,0,0,0,0,0,0,0,0,0,0,0,0,0,0,0,0,0]","[0,0,0,0,0,0,0,0,0,0,0,0,0,0,0,0,0,0,0,0,0,0,0,0,0,0,0,0,0,0,0,0,0,0,0,0,0,0,0,0,0,0,0,0,0,0,0,0,0,0,0,0,0,0,0,0,0,0,0,0,0,0,0,0,0,0,0,0,0,0,0,0,0,0,0,0,0,0,0,0,0,0,0,0,0,0,0,0,0,0,0,0,0,0,0,0,0,0,0,0,0,0,0,0,0,0,0,0,0,0,0,0,0,0,0,0,0,0,0,0,0,0,0,0,0,0,0,0,0,0,0,0,0,0,0,0]","[0,0.014999866485595703,0.031999826431274414,0.04900002479553223,0.06499981880187988,0.0820000171661377,0.09800004959106445,0.11500000953674316,0.13199996948242188,0.14899992942810059,0.16499996185302734,0.18199992179870605,0.19899988174438477,0.21499991416931152,0.23199987411499023,0.247999906539917,0.2649998664855957,0.2819998264312744,0.29799985885620117,0.3149998188018799,0.3320000171661377,0.3489999771118164,0.3659999370574951,0.38299989700317383,0.3989999294281006,0.41499996185302734,0.43199992179870605,0.44899988174438477,0.4649999141693115,0.48199987411499023,0.49899983406066895,0.5160000324249268,0.5319998264312744,0.5490000247955322,0.5649998188018799,0.5820000171661377,0.5989999771118164,0.6159999370574951,0.6319999694824219,0.6489999294281006,0.6659998893737793,0.681999921798706,0.6989998817443848,0.7159998416900635,0.7319998741149902,0.7649998664855957,0.7819998264312744,0.7979998588562012,0.8149998188018799,0.8320000171661377,0.8489999771118164,0.8650000095367432,0.8819999694824219,0.8980000019073486,0.9149999618530273,0.931999921798706,0.9479999542236328,0.9649999141693115,0.9819998741149902,0.997999906539917,1.0149998664855957,1.0319998264312744,1.0490000247955322,1.0649998188018799,1.0820000171661377,1.0989999771118164,1.1150000095367432,1.1329998970031738,1.1489999294281006,1.1649999618530273,1.181999921798706,1.1989998817443848,1.2149999141693115,1.2330000400543213,1.248999834060669,1.2649998664855957,1.2829999923706055,1.2990000247955322,1.3149998188018799,1.3320000171661377,1.3489999771118164,1.3650000095367432,1.3819999694824219,1.3989999294281006,1.4159998893737793,1.431999921798706,1.4500000476837158,1.4659998416900635,1.4830000400543213,1.498999834060669,1.5160000324249268,1.5329999923706055,1.5490000247955322,1.565999984741211,1.5820000171661377,1.5989999771118164,1.6150000095367432,1.6319999694824219,1.6489999294281006,1.6649999618530273,1.682999849319458,1.6989998817443848,1.7159998416900635,1.7319998741149902,1.748999834060669,1.7660000324249268,1.7829999923706055,1.7990000247955322,1.815999984741211,1.8329999446868896,1.8489999771118164,1.8659999370574951,1.8829998970031738,1.8989999294281006,1.9159998893737793,1.932999849319458,1.9489998817443848,1.9670000076293945,1.9830000400543213,1.998999834060669,2.0160000324249268,2.0329999923706055,2.0490000247955322,2.065999984741211,2.0829999446868896,2.0999999046325684,2.115999937057495,2.132999897003174,2.1499998569488525,2.1659998893737793,2.182999849319458,2.1989998817443848,2.2159998416900635,2.2319998741149902,2.248999834060669,2.2660000324249268]",,[],[],NaN,-74,26.5,0,space,0.651000023,40,0,40,0,1,39,,,,,,,,,,,,,,,,,,
,,,,,,,,,,,,,,,,,,,,,,,,,,,,,,,,,,,1,0,1,0,1,0,,,,,,,Pilot1,,,2020-06-25_10h49.51.459,AvatarExp_SD,3.1.2,60,,,,,200,100,0,const,3.5,88,left,-4,-20,"[-18,-18,-18,-18,-18,-18,-18,-18,-18,-18,-18,-18,-18,-18,-16,-14,-13,-11,-9,-4,3,14,30,44,53,57,57,57,56,54,52,49,46,43,37,31,27,24,23,20,18,16,12,7,3,2,2,2,2,2,0,-1,-3,-4,-4,-4,-4,-4,-4,-4,-4,-4,-4,-4,-4,-7,-11,-16,-21,-26,-28,-27,-26,-26,-27,-30,-33,-33,-33,-31,-29,-25,-22,-20,-17,-14,-11,-8,-7,-6,-6,-6,-6,-6,-6]","[-142.5,-142.5,-142.5,-142.5,-142.5,-142.5,-142.5,-142.5,-142.5,-142.5,-142.5,-142.5,-142.5,-141.5,-139.5,-136.5,-130.5,-123.5,-111.5,-96.5,-73.5,-49.5,-16.5,14.5,39.5,58.5,68.5,76.5,82.5,89.5,94.5,100.5,104.5,108.5,112.5,113.5,114.5,114.5,114.5,114.5,114.5,114.5,113.5,111.5,110.5,109.5,109.5,109.5,109.5,109.5,108.5,108.5,108.5,108.5,108.5,108.5,108.5,108.5,108.5,108.5,107.5,107.5,107.5,107.5,104.5,98.5,85.5,69.5,47.5,14.5,-16.5,-47.5,-78.5,-107.5,-131.5,-152.5,-165.5,-175.5,-184.5,-190.5,-193.5,-194.5,-196.5,-197.5,-199.5,-200.5,-201.5,-203.5,-204.5,-204.5,-204.5,-204.5,-204.5,-204.5,-204.5]","[0,0,0,0,0,0,0,0,0,0,0,0,0,0,0,0,0,0,0,0,0,0,0,0,0,0,0,0,0,0,0,0,0,0,0,0,0,0,0,0,0,0,0,0,0,0,0,0,0,0,0,0,0,0,0,1,1,1,1,0,0,0,0,0,0,0,0,0,0,0,0,0,0,0,0,0,0,0,0,0,0,0,0,0,0,0,0,0,0,0,0,0,0,0,1]","[0,0,0,0,0,0,0,0,0,0,0,0,0,0,0,0,0,0,0,0,0,0,0,0,0,0,0,0,0,0,0,0,0,0,0,0,0,0,0,0,0,0,0,0,0,0,0,0,0,0,0,0,0,0,0,0,0,0,0,0,0,0,0,0,0,0,0,0,0,0,0,0,0,0,0,0,0,0,0,0,0,0,0,0,0,0,0,0,0,0,0,0,0,0,0]","[0,0,0,0,0,0,0,0,0,0,0,0,0,0,0,0,0,0,0,0,0,0,0,0,0,0,0,0,0,0,0,0,0,0,0,0,0,0,0,0,0,0,0,0,0,0,0,0,0,0,0,0,0,0,0,0,0,0,0,0,0,0,0,0,0,0,0,0,0,0,0,0,0,0,0,0,0,0,0,0,0,0,0,0,0,0,0,0,0,0,0,0,0,0,0]","[0,0.032000064849853516,0.04900002479553223,0.06599998474121094,0.0820000171661377,0.0989999771118164,0.11600017547607422,0.13200020790100098,0.1490001678466797,0.1660001277923584,0.1830000877380371,0.19900012016296387,0.21600008010864258,0.2350001335144043,0.24900007247924805,0.26600003242492676,0.28299999237060547,0.2990000247955322,0.31599998474121094,0.33300018310546875,0.35000014305114746,0.3660001754760742,0.38300013542175293,0.3990001678466797,0.4160001277923584,0.4330000877380371,0.44900012016296387,0.4660000801086426,0.4830000400543213,0.5,0.5160000324249268,0.5329999923706055,0.5490000247955322,0.5659999847412109,0.5830001831054688,0.5989999771118164,0.6160001754760742,0.6330001354217529,0.6500000953674316,0.6660001277923584,0.6830000877380371,0.6990001201629639,0.7160000801086426,0.7330000400543213,0.75,0.7660000324249268,0.7820000648498535,0.7990000247955322,0.8159999847412109,0.8320000171661377,0.8489999771118164,0.8660001754760742,0.8830001354217529,0.8990001678466797,0.9160001277923584,0.9330000877380371,0.9490001201629639,0.9660000801086426,0.999000072479248,1.0160000324249268,1.0329999923706055,1.0490000247955322,1.065999984741211,1.0830001831054688,1.1010000705718994,1.1160001754760742,1.133000135421753,1.1500000953674316,1.1660001277923584,1.183000087738037,1.2000000476837158,1.2160000801086426,1.2330000400543213,1.25,1.2670001983642578,1.2829999923706055,1.3000001907348633,1.317000150680542,1.3330001831054688,1.3500001430511475,1.3660001754760742,1.383000135421753,1.4000000953674316,1.4160001277923584,1.433000087738037,1.4500000476837158,1.4660000801086426,1.4840002059936523,1.501000165939331,1.5170001983642578,1.5340001583099365,1.5500001907348633,1.567000150680542,1.5840001106262207,1.6010000705718994]",,[],[],NaN,-77.5,-15.5,1,space,0.551000118,40,0,40,0,1,39,,,,,,,,,,,,,,,,,,
,,,,,,,,,,,,,,,,,,,,,,,,,,,,,,,,,,,1,0,1,0,1,0,,,,,,,Pilot1,,,2020-06-25_10h49.51.459,AvatarExp_SD,3.1.2,60,,,,,400,300,0,const,3.5,83,left,-3,-96,"[-3,-3,-3,-3,-3,-3,-3,-3,-2,-1,0,2,3,3,3,0,-5,-11,-15,-18,-20,-20,-21,-21,-21,-19,-17,-15,-12,-9,-8,-7,-6,-4,-4,-3,-2,-2,-1,-1,0,0,0,0,1,1,1,0,-1,-2,-2,-2,-2,-3,-3,-3,-3,-3,-3,-3,-3,-4,-4,-4,-4,-4,-5,-6,-6,-6,-6,-4,-1,2,4,5,6,6,6,7,7,7,7,7,8,8,8,7,7,7,7,7]","[-186.5,-186.5,-186.5,-186.5,-186.5,-186.5,-185.5,-184.5,-182.5,-179.5,-175.5,-170.5,-163.5,-151.5,-129.5,-104.5,-75.5,-50.5,-31.5,-16.5,-1.5,10.5,21.5,29.5,36.5,40.5,45.5,49.5,53.5,57.5,60.5,64.5,66.5,69.5,70.5,73.5,75.5,78.5,80.5,80.5,82.5,82.5,83.5,85.5,86.5,86.5,87.5,88.5,90.5,92.5,94.5,97.5,100.5,101.5,102.5,102.5,102.5,102.5,102.5,102.5,102.5,101.5,96.5,87.5,67.5,41.5,6.5,-29.5,-61.5,-89.5,-116.5,-134.5,-145.5,-153.5,-158.5,-161.5,-165.5,-169.5,-173.5,-175.5,-175.5,-175.5,-176.5,-178.5,-181.5,-186.5,-189.5,-191.5,-193.5,-193.5,-193.5,-193.5]","[0,0,0,0,0,0,0,0,0,0,0,0,0,0,0,0,0,0,0,0,0,0,0,0,0,0,0,0,0,0,0,0,0,0,0,0,0,0,0,0,0,0,0,0,0,0,0,0,0,0,0,0,0,0,0,1,1,1,1,0,0,0,0,0,0,0,0,0,0,0,0,0,0,0,0,0,0,0,0,0,0,0,0,0,0,0,0,0,0,0,0,1]","[0,0,0,0,0,0,0,0,0,0,0,0,0,0,0,0,0,0,0,0,0,0,0,0,0,0,0,0,0,0,0,0,0,0,0,0,0,0,0,0,0,0,0,0,0,0,0,0,0,0,0,0,0,0,0,0,0,0,0,0,0,0,0,0,0,0,0,0,0,0,0,0,0,0,0,0,0,0,0,0,0,0,0,0,0,0,0,0,0,0,0,0]","[0,0,0,0,0,0,0,0,0,0,0,0,0,0,0,0,0,0,0,0,0,0,0,0,0,0,0,0,0,0,0,0,0,0,0,0,0,0,0,0,0,0,0,0,0,0,0,0,0,0,0,0,0,0,0,0,0,0,0,0,0,0,0,0,0,0,0,0,0,0,0,0,0,0,0,0,0,0,0,0,0,0,0,0,0,0,0,0,0,0,0,0]","[0.0009999275207519531,0.01699995994567871,0.032000064849853516,0.04900002479553223,0.06599998474121094,0.0840001106262207,0.10000014305114746,0.11599993705749512,0.13300013542175293,0.14899992942810059,0.1660001277923584,0.1830000877380371,0.19900012016296387,0.21600008010864258,0.23200011253356934,0.25,0.26600003242492676,0.28299999237060547,0.2990000247955322,0.31599998474121094,0.33299994468688965,0.3489999771118164,0.3659999370574951,0.38300013542175293,0.3989999294281006,0.4160001277923584,0.4330000877380371,0.44900012016296387,0.4660000801086426,0.4830000400543213,0.49900007247924805,0.5160000324249268,0.5329999923706055,0.5490000247955322,0.5659999847412109,0.5829999446868896,0.6029999256134033,0.6200001239776611,0.6360001564025879,0.6510000228881836,0.6690001487731934,0.6860001087188721,0.7020001411437988,0.7350001335144043,0.749000072479248,0.7660000324249268,0.7820000648498535,0.7990000247955322,0.8159999847412109,0.8320000171661377,0.8489999771118164,0.8659999370574951,0.8830001354217529,0.8989999294281006,0.9160001277923584,0.9330000877380371,0.9490001201629639,0.9660000801086426,0.9830000400543213,0.999000072479248,1.0160000324249268,1.0329999923706055,1.0499999523162842,1.067000150680542,1.0829999446868896,1.1000001430511475,1.1170001029968262,1.133000135421753,1.1500000953674316,1.1660001277923584,1.183000087738037,1.2000000476837158,1.2170000076293945,1.2330000400543213,1.25,1.2660000324249268,1.2829999923706055,1.2999999523162842,1.317000150680542,1.3329999446868896,1.3489999771118164,1.3659999370574951,1.383000135421753,1.4000000953674316,1.4160001277923584,1.433000087738037,1.4500000476837158,1.4660000801086426,1.4830000400543213,1.499000072479248,1.5160000324249268,1.5340001583099365]",,[],[],NaN,-255,12.5,0,space,0.666999817,40,0,40,0,1,39,,,,,,,,,,,,,,,,,,
,,,,,,,,,,,,,,,,,,,,,,,,,,,,,,,,,,,1,0,1,0,1,0,,,,,,,Pilot1,,,2020-06-25_10h49.51.459,AvatarExp_SD,3.1.2,60,,,,,400,300,0,const,3.5,60,left,-10,-44,"[-24,-24,-24,-24,-24,-24,-24,-23,-22,-20,-18,-14,-13,-13,-15,-17,-19,-20,-20,-20,-20,-19,-19,-19,-19,-19,-19,-19,-19,-19,-19,-19,-18,-17,-16,-15,-14,-13,-12,-12,-12,-12,-12,-11,-10,-10,-10,-10,-10,-10,-10,-10,-10,-9,-9,-11,-15,-17,-18,-18,-16,-16,-14,-12,-11,-11,-11,-11,-11,-10,-9,-9,-9,-9,-9,-8,-8]","[-170.5,-170.5,-170.5,-170.5,-170.5,-170.5,-168.5,-167.5,-165.5,-162.5,-158.5,-147.5,-129.5,-97.5,-54.5,-19.5,7.5,28.5,40.5,50.5,56.5,60.5,63.5,65.5,66.5,67.5,69.5,70.5,71.5,73.5,74.5,75.5,77.5,80.5,83.5,86.5,88.5,91.5,92.5,93.5,94.5,94.5,94.5,94.5,94.5,94.5,94.5,94.5,93.5,87.5,75.5,56.5,31.5,-5.5,-44.5,-78.5,-107.5,-124.5,-137.5,-147.5,-153.5,-155.5,-158.5,-160.5,-162.5,-164.5,-166.5,-171.5,-174.5,-178.5,-183.5,-187.5,-189.5,-191.5,-191.5,-192.5,-192.5]","[0,0,0,0,0,0,0,0,0,0,0,0,0,0,0,0,0,0,0,0,0,0,0,0,0,0,0,0,0,0,0,0,0,0,0,0,0,0,0,0,0,0,1,1,1,1,0,0,0,0,0,0,0,0,0,0,0,0,0,0,0,0,0,0,0,0,0,0,0,0,0,0,0,0,0,0,1]","[0,0,0,0,0,0,0,0,0,0,0,0,0,0,0,0,0,0,0,0,0,0,0,0,0,0,0,0,0,0,0,0,0,0,0,0,0,0,0,0,0,0,0,0,0,0,0,0,0,0,0,0,0,0,0,0,0,0,0,0,0,0,0,0,0,0,0,0,0,0,0,0,0,0,0,0,0]","[0,0,0,0,0,0,0,0,0,0,0,0,0,0,0,0,0,0,0,0,0,0,0,0,0,0,0,0,0,0,0,0,0,0,0,0,0,0,0,0,0,0,0,0,0,0,0,0,0,0,0,0,0,0,0,0,0,0,0,0,0,0,0,0,0,0,0,0,0,0,0,0,0,0,0,0,0]","[0,0.016000032424926758,0.032000064849853516,0.04900002479553223,0.06500005722045898,0.0820000171661377,0.0989999771118164,0.11599993705749512,0.13199996948242188,0.14899992942810059,0.1659998893737793,0.182999849319458,0.20000004768371582,0.21599984169006348,0.23199987411499023,0.24899983406066895,0.26600003242492676,0.2820000648498535,0.2990000247955322,0.31599998474121094,0.3320000171661377,0.3489999771118164,0.3659999370574951,0.38299989700317383,0.3989999294281006,0.4159998893737793,0.432999849319458,0.44899988174438477,0.4659998416900635,0.48199987411499023,0.49899983406066895,0.5160000324249268,0.5320000648498535,0.5490000247955322,0.5659999847412109,0.5829999446868896,0.5989999771118164,0.6159999370574951,0.6319999694824219,0.6489999294281006,0.6659998893737793,0.681999921798706,0.6989998817443848,0.7170000076293945,0.7330000400543213,0.748999834060669,0.7660000324249268,0.7829999923706055,0.7999999523162842,0.8159999847412109,0.8339998722076416,0.8499999046325684,0.8710000514984131,0.8840000629425049,0.8999998569488525,0.9159998893737793,0.932999849319458,0.9500000476837158,0.9659998416900635,0.9830000400543213,1,1.0160000324249268,1.0329999923706055,1.0499999523162842,1.065999984741211,1.0829999446868896,1.0989999771118164,1.1159999370574951,1.1329998970031738,1.1499998569488525,1.1659998893737793,1.182999849319458,1.2000000476837158,1.2159998416900635,1.2319998741149902,1.25,1.2660000324249268]",,[],[],NaN,-174.5,9,0,space,0.519999981,40,0,40,0,1,39,,,,,,,,,,,,,,,,,,
,,,,,,,,,,,,,,,,,,,,,,,,,,,,,,,,,,,1,0,1,0,1,0,,,,,,,Pilot1,,,2020-06-25_10h49.51.459,AvatarExp_SD,3.1.2,60,,,,,200,100,0,const,3.5,67,right,2,-17,"[-43,-43,-43,-43,-43,-43,-43,-43,-43,-43,-43,-43,-43,-43,-41,-34,-27,-21,-16,-9,0,6,9,10,10,10,9,7,5,4,4,4,4,4,4,3,2,2,2,2,2,2,2,2,0,-1,-1,-1,-1,-1,-1,-1,-2,-3,-3,-3,-2,1,3,5,5,5,3,1,0,0,0,0,0,1,1,1,1,1,1,1,1,1,1,1]","[-157.5,-157.5,-157.5,-157.5,-157.5,-157.5,-157.5,-157.5,-157.5,-157.5,-157.5,-157.5,-157.5,-157.5,-153.5,-140.5,-120.5,-90.5,-48.5,-7.5,28.5,53.5,70.5,78.5,81.5,84.5,87.5,90.5,94.5,97.5,101.5,107.5,110.5,111.5,113.5,113.5,114.5,114.5,114.5,114.5,114.5,114.5,114.5,114.5,113.5,112.5,112.5,112.5,112.5,112.5,111.5,109.5,105.5,98.5,85.5,67.5,49.5,23.5,-7.5,-40.5,-77.5,-107.5,-132.5,-148.5,-160.5,-167.5,-175.5,-185.5,-191.5,-194.5,-195.5,-196.5,-197.5,-198.5,-198.5,-198.5,-198.5,-198.5,-198.5,-198.5]","[0,0,0,0,0,0,0,0,0,0,0,0,0,0,0,0,0,0,0,0,0,0,0,0,0,0,0,0,0,0,0,0,0,0,0,0,0,0,0,0,0,1,1,0,0,0,0,0,0,0,0,0,0,0,0,0,0,0,0,0,0,0,0,0,0,0,0,0,0,0,0,0,0,0,0,0,0,0,0,1]","[0,0,0,0,0,0,0,0,0,0,0,0,0,0,0,0,0,0,0,0,0,0,0,0,0,0,0,0,0,0,0,0,0,0,0,0,0,0,0,0,0,0,0,0,0,0,0,0,0,0,0,0,0,0,0,0,0,0,0,0,0,0,0,0,0,0,0,0,0,0,0,0,0,0,0,0,0,0,0,0]","[0,0,0,0,0,0,0,0,0,0,0,0,0,0,0,0,0,0,0,0,0,0,0,0,0,0,0,0,0,0,0,0,0,0,0,0,0,0,0,0,0,0,0,0,0,0,0,0,0,0,0,0,0,0,0,0,0,0,0,0,0,0,0,0,0,0,0,0,0,0,0,0,0,0,0,0,0,0,0,0]","[0,0.014999866485595703,0.031999826431274414,0.04799985885620117,0.06499981880187988,0.0819997787475586,0.09799981117248535,0.11500000953674316,0.13199996948242188,0.14800000190734863,0.16499996185302734,0.18199992179870605,0.19899988174438477,0.21499991416931152,0.2329998016357422,0.24899983406066895,0.2649998664855957,0.2819998264312744,0.2989997863769531,0.3149998188018799,0.3319997787475586,0.3489999771118164,0.36500000953674316,0.3819999694824219,0.3989999294281006,0.41499996185302734,0.43199992179870605,0.44899988174438477,0.4649999141693115,0.48199987411499023,0.49899983406066895,0.5149998664855957,0.5319998264312744,0.5489997863769531,0.5649998188018799,0.5819997787475586,0.5989999771118164,0.6150000095367432,0.6319999694824219,0.6480000019073486,0.6649999618530273,0.681999921798706,0.6989998817443848,0.7159998416900635,0.7319998741149902,0.748999834060669,0.7649998664855957,0.7819998264312744,0.7989997863769531,0.8149998188018799,0.8319997787475586,0.8489999771118164,0.8659999370574951,0.8829998970031738,0.8989999294281006,0.9159998893737793,0.932999849319458,0.9489998817443848,0.9659998416900635,0.9829998016357422,0.998999834060669,1.0159997940063477,1.0329999923706055,1.0489997863769531,1.065999984741211,1.0829999446868896,1.0989999771118164,1.1159999370574951,1.1329998970031738,1.1489999294281006,1.1659998893737793,1.181999921798706,1.1989998817443848,1.2159998416900635,1.2329998016357422,1.248999834060669,1.2649998664855957,1.2819998264312744,1.2989997863769531,1.315999984741211]",,[],[],NaN,72,5.5,1,space,0.603000164,40,0,40,0,1,39,,,,,,,,,,,,,,,,,,
,,,,,,,,,,,,,,,,,,,,,,,,,,,,,,,,,,,1,0,1,0,1,0,,,,,,,Pilot1,,,2020-06-25_10h49.51.459,AvatarExp_SD,3.1.2,60,,,,,300,200,0,const,3.5,79,left,-12,22,"[1,1,1,1,1,1,1,1,1,1,1,1,1,1,0,-4,-7,-10,-12,-12,-13,-14,-14,-14,-14,-15,-15,-15,-15,-15,-15,-15,-14,-13,-12,-12,-12,-12,-12,-12,-12,-12,-12,-12,-12,-12,-12,-13,-14,-15,-18,-21,-24,-25,-26,-26,-25,-22,-16,-12,-9,-6,-5,-4,-2,0,1,2,2,3,4,5,6,7,7,7,7,7,7,7,7,7,7,7,7,7,7,7]","[-188.5,-188.5,-188.5,-188.5,-188.5,-188.5,-188.5,-188.5,-188.5,-188.5,-185.5,-183.5,-179.5,-168.5,-148.5,-116.5,-72.5,-35.5,-8.5,13.5,28.5,38.5,48.5,53.5,57.5,60.5,62.5,65.5,68.5,71.5,75.5,78.5,82.5,86.5,89.5,92.5,94.5,95.5,96.5,96.5,96.5,96.5,96.5,96.5,96.5,96.5,96.5,96.5,95.5,90.5,80.5,66.5,43.5,18.5,-5.5,-28.5,-46.5,-64.5,-82.5,-97.5,-108.5,-118.5,-123.5,-128.5,-133.5,-139.5,-145.5,-149.5,-154.5,-157.5,-160.5,-164.5,-167.5,-172.5,-176.5,-180.5,-183.5,-185.5,-187.5,-189.5,-191.5,-191.5,-192.5,-193.5,-193.5,-193.5,-193.5,-193.5]","[0,0,0,0,0,0,0,0,0,0,0,0,0,0,0,0,0,0,0,0,0,0,0,0,0,0,0,0,0,0,0,0,0,0,0,0,0,0,0,0,1,1,1,0,0,0,0,0,0,0,0,0,0,0,0,0,0,0,0,0,0,0,0,0,0,0,0,0,0,0,0,0,0,0,0,0,0,0,0,0,0,0,0,0,0,0,0,1]","[0,0,0,0,0,0,0,0,0,0,0,0,0,0,0,0,0,0,0,0,0,0,0,0,0,0,0,0,0,0,0,0,0,0,0,0,0,0,0,0,0,0,0,0,0,0,0,0,0,0,0,0,0,0,0,0,0,0,0,0,0,0,0,0,0,0,0,0,0,0,0,0,0,0,0,0,0,0,0,0,0,0,0,0,0,0,0,0]","[0,0,0,0,0,0,0,0,0,0,0,0,0,0,0,0,0,0,0,0,0,0,0,0,0,0,0,0,0,0,0,0,0,0,0,0,0,0,0,0,0,0,0,0,0,0,0,0,0,0,0,0,0,0,0,0,0,0,0,0,0,0,0,0,0,0,0,0,0,0,0,0,0,0,0,0,0,0,0,0,0,0,0,0,0,0,0,0]","[0,0.016000032424926758,0.03299999237060547,0.04999995231628418,0.06599998474121094,0.08299994468688965,0.0989999771118164,0.11599993705749512,0.13299989700317383,0.14899992942810059,0.1659998893737793,0.182999849319458,0.20000004768371582,0.21600008010864258,0.2330000400543213,0.25,0.26600003242492676,0.28299999237060547,0.2999999523162842,0.31599998474121094,0.33299994468688965,0.34999990463256836,0.3659999370574951,0.3840000629425049,0.39999985694885254,0.4159998893737793,0.432999849319458,0.4500000476837158,0.4660000801086426,0.4830000400543213,0.5,0.5160000324249268,0.5329999923706055,0.5499999523162842,0.5669999122619629,0.5829999446868896,0.5999999046325684,0.6159999370574951,0.6329998970031738,0.6499998569488525,0.6659998893737793,0.682999849319458,0.7000000476837158,0.7160000801086426,0.7330000400543213,0.75,0.7669999599456787,0.7829999923706055,0.7999999523162842,0.8169999122619629,0.8339998722076416,0.8499999046325684,0.8669998645782471,0.8840000629425049,0.8999998569488525,0.9170000553131104,0.9340000152587891,0.9500000476837158,0.9670000076293945,0.9839999675750732,1,1.0169999599456787,1.0339999198913574,1.0499999523162842,1.066999912261963,1.0839998722076416,1.0999999046325684,1.116999864578247,1.1340000629425049,1.1510000228881836,1.1670000553131104,1.184000015258789,1.2000000476837158,1.2170000076293945,1.2339999675750732,1.25,1.2669999599456787,1.2839999198913574,1.2999999523162842,1.316999912261963,1.3339998722076416,1.3499999046325684,1.366999864578247,1.3840000629425049,1.3999998569488525,1.4159998893737793,1.432999849319458,1.4500000476837158]",,[],[],NaN,-152,-19,0,space,0.634000063,40,0,40,0,1,39,,,,,,,,,,,,,,,,,,
,,,,,,,,,,,,,,,,,,,,,,,,,,,,,,,,,,,1,0,1,0,1,0,,,,,,,Pilot1,,,2020-06-25_10h49.51.459,AvatarExp_SD,3.1.2,60,,,,,300,200,0,const,3.5,113,right,-7,-63,"[7,7,7,7,7,7,7,7,8,9,10,12,12,11,7,5,2,0,-2,-3,-5,-7,-9,-10,-10,-10,-10,-9,-8,-8,-8,-8,-8,-7,-7,-7,-7,-7,-7,-7,-7,-7,-7,-7,-7,-7,-7,-7,-8,-9,-7,-4,-1,1,1,1,1,1,1,1,2,3,3,4,4,4,4,4,4,4,4,4,4]","[-186.5,-186.5,-186.5,-185.5,-185.5,-185.5,-184.5,-182.5,-180.5,-176.5,-171.5,-164.5,-152.5,-132.5,-107.5,-78.5,-43.5,-16.5,9.5,28.5,43.5,55.5,67.5,74.5,78.5,80.5,83.5,85.5,86.5,89.5,92.5,95.5,96.5,97.5,97.5,97.5,97.5,98.5,98.5,98.5,98.5,98.5,98.5,98.5,98.5,98.5,98.5,96.5,90.5,75.5,50.5,19.5,-15.5,-44.5,-74.5,-103.5,-127.5,-147.5,-164.5,-177.5,-183.5,-187.5,-189.5,-190.5,-190.5,-190.5,-192.5,-195.5,-197.5,-198.5,-199.5,-199.5,-199.5]","[0,0,0,0,0,0,0,0,0,0,0,0,0,0,0,0,0,0,0,0,0,0,0,0,0,0,0,0,0,0,0,0,0,0,0,0,0,0,0,0,0,1,1,1,0,0,0,0,0,0,0,0,0,0,0,0,0,0,0,0,0,0,0,0,0,0,0,0,0,0,0,0,1]","[0,0,0,0,0,0,0,0,0,0,0,0,0,0,0,0,0,0,0,0,0,0,0,0,0,0,0,0,0,0,0,0,0,0,0,0,0,0,0,0,0,0,0,0,0,0,0,0,0,0,0,0,0,0,0,0,0,0,0,0,0,0,0,0,0,0,0,0,0,0,0,0,0]","[0,0,0,0,0,0,0,0,0,0,0,0,0,0,0,0,0,0,0,0,0,0,0,0,0,0,0,0,0,0,0,0,0,0,0,0,0,0,0,0,0,0,0,0,0,0,0,0,0,0,0,0,0,0,0,0,0,0,0,0,0,0,0,0,0,0,0,0,0,0,0,0,0]","[0,0.015000104904174805,0.032000064849853516,0.04900002479553223,0.06500005722045898,0.0820000171661377,0.09800004959106445,0.11500000953674316,0.13199996948242188,0.1490001678466797,0.1660001277923584,0.18200016021728516,0.19900012016296387,0.21500015258789062,0.23200011253356934,0.24900007247924805,0.26600003242492676,0.2820000648498535,0.2990000247955322,0.315000057220459,0.3320000171661377,0.3489999771118164,0.36500000953674316,0.3819999694824219,0.3990001678466797,0.41500020027160645,0.43200016021728516,0.44900012016296387,0.4650001525878906,0.48200011253356934,0.49900007247924805,0.5150001049041748,0.5320000648498535,0.5490000247955322,0.565000057220459,0.5820000171661377,0.5980000495910645,0.6150000095367432,0.6319999694824219,0.6480000019073486,0.6650002002716064,0.6820001602172852,0.6990001201629639,0.7150001525878906,0.7320001125335693,0.749000072479248,0.7660000324249268,0.7829999923706055,0.7990000247955322,0.8159999847412109,0.8330001831054688,0.8489999771118164,0.8660001754760742,0.8830001354217529,0.8990001678466797,0.9160001277923584,0.9330000877380371,0.9490001201629639,0.9660000801086426,0.9830000400543213,0.999000072479248,1.0160000324249268,1.0320000648498535,1.0490000247955322,1.065000057220459,1.0820000171661377,1.0989999771118164,1.1160001754760742,1.1319999694824219,1.1490001678466797,1.1660001277923584,1.1820001602172852,1.1990001201629639]",,[],[],NaN,171.5,5.5,1,space,0.653000116,40,0,40,0,1,39,,,,,,,,,,,,,,,,,,
,,,,,,,,,,,,,,,,,,,,,,,,,,,,,,,,,,,1,0,1,0,1,0,,,,,,,Pilot1,,,2020-06-25_10h49.51.459,AvatarExp_SD,3.1.2,60,,,,,500,400,0,const,3.5,103,right,-301,-121,"[2,2,2,2,2,2,3,3,4,5,7,9,10,13,14,14,14,14,14,14,15,15,14,12,9,7,2,-5,-12,-24,-35,-47,-65,-84,-105,-132,-159,-185,-207,-228,-246,-261,-267,-269,-270,-271,-273,-276,-278,-280,-282,-284,-286,-288,-291,-294,-297,-299,-301,-301,-301,-301,-301,-301,-301,-301,-301,-301,-301,-301,-300,-296,-289,-275,-258,-238,-215,-190,-169,-145,-113,-82,-51,-31,-16,-4,2,6,11,18,24,29,31,31,31,32,32,31,28,25,22,19,18,16,16,16]","[-184.5,-184.5,-184.5,-184.5,-184.5,-184.5,-184.5,-182.5,-179.5,-176.5,-172.5,-167.5,-160.5,-148.5,-131.5,-111.5,-87.5,-59.5,-35.5,-15.5,2.5,12.5,23.5,33.5,41.5,47.5,53.5,57.5,61.5,68.5,72.5,77.5,82.5,84.5,86.5,87.5,88.5,91.5,92.5,94.5,95.5,96.5,97.5,98.5,98.5,98.5,99.5,100.5,101.5,103.5,104.5,106.5,108.5,110.5,113.5,114.5,115.5,115.5,116.5,116.5,116.5,116.5,116.5,116.5,116.5,116.5,116.5,116.5,116.5,115.5,110.5,100.5,87.5,63.5,40.5,14.5,-13.5,-44.5,-71.5,-97.5,-126.5,-149.5,-169.5,-181.5,-190.5,-198.5,-203.5,-207.5,-212.5,-217.5,-221.5,-223.5,-223.5,-223.5,-223.5,-221.5,-217.5,-211.5,-206.5,-202.5,-199.5,-198.5,-197.5,-196.5,-196.5,-195.5]","[0,0,0,0,0,0,0,0,0,0,0,0,0,0,0,0,0,0,0,0,0,0,0,0,0,0,0,0,0,0,0,0,0,0,0,0,0,0,0,0,0,0,0,0,0,0,0,0,0,0,0,0,0,0,0,0,0,0,0,0,0,0,0,1,1,1,1,1,0,0,0,0,0,0,0,0,0,0,0,0,0,0,0,0,0,0,0,0,0,0,0,0,0,0,0,0,0,0,0,0,0,0,0,0,0,1]","[0,0,0,0,0,0,0,0,0,0,0,0,0,0,0,0,0,0,0,0,0,0,0,0,0,0,0,0,0,0,0,0,0,0,0,0,0,0,0,0,0,0,0,0,0,0,0,0,0,0,0,0,0,0,0,0,0,0,0,0,0,0,0,0,0,0,0,0,0,0,0,0,0,0,0,0,0,0,0,0,0,0,0,0,0,0,0,0,0,0,0,0,0,0,0,0,0,0,0,0,0,0,0,0,0,0]","[0,0,0,0,0,0,0,0,0,0,0,0,0,0,0,0,0,0,0,0,0,0,0,0,0,0,0,0,0,0,0,0,0,0,0,0,0,0,0,0,0,0,0,0,0,0,0,0,0,0,0,0,0,0,0,0,0,0,0,0,0,0,0,0,0,0,0,0,0,0,0,0,0,0,0,0,0,0,0,0,0,0,0,0,0,0,0,0,0,0,0,0,0,0,0,0,0,0,0,0,0,0,0,0,0,0]","[0,0.016000032424926758,0.03299999237060547,0.04900002479553223,0.06599998474121094,0.08299994468688965,0.09999990463256836,0.11599993705749512,0.13299989700317383,0.14999985694885254,0.1659998893737793,0.182999849319458,0.20000004768371582,0.21600008010864258,0.2330000400543213,0.24900007247924805,0.2669999599456787,0.28299999237060547,0.2999999523162842,0.3169999122619629,0.33299994468688965,0.34999990463256836,0.3659999370574951,0.38299989700317383,0.39999985694885254,0.4159998893737793,0.432999849319458,0.4500000476837158,0.4660000801086426,0.4830000400543213,0.5,0.5169999599456787,0.5329999923706055,0.5499999523162842,0.5659999847412109,0.5829999446868896,0.5999999046325684,0.6159999370574951,0.6389999389648438,0.6499998569488525,0.6659998893737793,0.682999849319458,0.6989998817443848,0.7160000801086426,0.7330000400543213,0.75,0.7660000324249268,0.7829999923706055,0.7999999523162842,0.8159999847412109,0.8329999446868896,0.8499999046325684,0.8659999370574951,0.8829998970031738,0.8999998569488525,0.9159998893737793,0.932999849319458,0.9500000476837158,0.9670000076293945,0.9830000400543213,1,1.0160000324249268,1.0329999923706055,1.0509998798370361,1.066999912261963,1.0839998722076416,1.1010000705718994,1.116999864578247,1.1329998970031738,1.1499998569488525,1.1670000553131104,1.182999849319458,1.2009999752044678,1.2179999351501465,1.2339999675750732,1.250999927520752,1.2669999599456787,1.2839999198913574,1.3029999732971191,1.316999912261963,1.3329999446868896,1.3499999046325684,1.366999864578247,1.3829998970031738,1.3999998569488525,1.4170000553131104,1.432999849319458,1.4500000476837158,1.4670000076293945,1.4830000400543213,1.5,1.5169999599456787,1.5329999923706055,1.5499999523162842,1.565999984741211,1.5839998722076416,1.5999999046325684,1.616999864578247,1.6340000629425049,1.6499998569488525,1.6670000553131104,1.682999849319458,1.7000000476837158,1.7170000076293945,1.7330000400543213,1.75]",,[],[],NaN,-66.5,-5,0,space,0.553000212,40,0,40,0,1,39,,,,,,,,,,,,,,,,,,
,,,,,,,,,,,,,,,,,,,,,,,,,,,,,,,,,,,1,0,1,0,1,0,,,,,,,Pilot1,,,2020-06-25_10h49.51.459,AvatarExp_SD,3.1.2,60,,,,,400,300,0,const,3.5,120,left,87,114,"[24,25,25,25,25,25,25,26,27,28,28,28,28,27,26,21,14,7,2,-1,-3,-6,-11,-14,-15,-16,-16,-17,-19,-21,-23,-23,-23,-23,-23,-23,-22,-20,-16,-14,-11,-9,-6,-6,-5,-3,0,1,2,2,2,2,2,2,2,2,2,1,1,0,0,0,-1,-2,-2,-3,-3,-3,-3,-3,-3,-2,4,14,27,39,52,66,77,83,84,84,84,84,85,86,87,87,87,87,87,87,88,88,88,88,88,89,90,92,95,98,99,96,87,75,64,55,45,33,25,18,12,8,4,-1,-2,-2,-2,-2,-2,-4,-4,-5,-5,-4,-3,0,1,1,1,1,1,1,1,1,1,1,1,1,1,1,1,1,1,1,1]","[-195.5,-195.5,-195.5,-195.5,-195.5,-195.5,-195.5,-193.5,-191.5,-188.5,-185.5,-180.5,-176.5,-166.5,-154.5,-136.5,-114.5,-93.5,-76.5,-59.5,-46.5,-31.5,-10.5,5.5,22.5,31.5,39.5,48.5,56.5,65.5,71.5,74.5,76.5,77.5,79.5,80.5,81.5,83.5,85.5,86.5,88.5,89.5,91.5,91.5,91.5,92.5,93.5,93.5,93.5,93.5,93.5,93.5,93.5,93.5,93.5,94.5,94.5,94.5,95.5,95.5,95.5,95.5,95.5,96.5,96.5,97.5,97.5,97.5,97.5,97.5,97.5,97.5,98.5,100.5,100.5,101.5,101.5,101.5,101.5,101.5,101.5,101.5,101.5,101.5,101.5,101.5,101.5,101.5,101.5,101.5,101.5,101.5,101.5,101.5,101.5,101.5,99.5,88.5,70.5,47.5,14.5,-20.5,-58.5,-89.5,-118.5,-143.5,-164.5,-178.5,-188.5,-197.5,-202.5,-208.5,-215.5,-220.5,-225.5,-228.5,-229.5,-229.5,-229.5,-229.5,-229.5,-224.5,-219.5,-215.5,-210.5,-207.5,-204.5,-200.5,-199.5,-199.5,-199.5,-199.5,-199.5,-199.5,-199.5,-199.5,-199.5,-199.5,-199.5,-199.5,-199.5,-198.5,-198.5,-198.5,-198.5,-198.5,-198.5]","[0,0,0,0,0,0,0,0,0,0,0,0,0,0,0,0,0,0,0,0,0,0,0,0,0,0,0,0,0,0,0,0,0,0,0,0,0,0,0,0,0,0,0,0,0,0,0,0,0,0,0,0,0,0,0,0,0,0,0,0,0,0,0,0,0,0,0,0,0,0,0,0,0,0,0,0,0,0,0,0,0,0,0,0,0,0,0,0,1,1,1,1,0,0,0,0,0,0,0,0,0,0,0,0,0,0,0,0,0,0,0,0,0,0,0,0,0,0,0,0,0,0,0,0,0,0,0,0,0,0,0,0,0,0,0,0,0,0,0,0,0,0,0,0,0,0,1]","[0,0,0,0,0,0,0,0,0,0,0,0,0,0,0,0,0,0,0,0,0,0,0,0,0,0,0,0,0,0,0,0,0,0,0,0,0,0,0,0,0,0,0,0,0,0,0,0,0,0,0,0,0,0,0,0,0,0,0,0,0,0,0,0,0,0,0,0,0,0,0,0,0,0,0,0,0,0,0,0,0,0,0,0,0,0,0,0,0,0,0,0,0,0,0,0,0,0,0,0,0,0,0,0,0,0,0,0,0,0,0,0,0,0,0,0,0,0,0,0,0,0,0,0,0,0,0,0,0,0,0,0,0,0,0,0,0,0,0,0,0,0,0,0,0,0,0]","[0,0,0,0,0,0,0,0,0,0,0,0,0,0,0,0,0,0,0,0,0,0,0,0,0,0,0,0,0,0,0,0,0,0,0,0,0,0,0,0,0,0,0,0,0,0,0,0,0,0,0,0,0,0,0,0,0,0,0,0,0,0,0,0,0,0,0,0,0,0,0,0,0,0,0,0,0,0,0,0,0,0,0,0,0,0,0,0,0,0,0,0,0,0,0,0,0,0,0,0,0,0,0,0,0,0,0,0,0,0,0,0,0,0,0,0,0,0,0,0,0,0,0,0,0,0,0,0,0,0,0,0,0,0,0,0,0,0,0,0,0,0,0,0,0,0,0]","[0,0.016000032424926758,0.032000064849853516,0.04900002479553223,0.06500005722045898,0.0820000171661377,0.0989999771118164,0.11599993705749512,0.13199996948242188,0.14899992942810059,0.1659998893737793,0.182999849319458,0.19899988174438477,0.21599984169006348,0.2330000400543213,0.24900007247924805,0.26600003242492676,0.28299999237060547,0.2990000247955322,0.31599998474121094,0.33299994468688965,0.3489999771118164,0.3659999370574951,0.38299989700317383,0.3989999294281006,0.4159998893737793,0.432999849319458,0.44899988174438477,0.4659998416900635,0.4830000400543213,0.49900007247924805,0.5160000324249268,0.5320000648498535,0.5490000247955322,0.5659999847412109,0.5820000171661377,0.5989999771118164,0.6159999370574951,0.6329998970031738,0.6489999294281006,0.6659998893737793,0.681999921798706,0.6989998817443848,0.7159998416900635,0.7319998741149902,0.749000072479248,0.7660000324249268,0.7820000648498535,0.7990000247955322,0.815000057220459,0.8320000171661377,0.8489999771118164,0.8650000095367432,0.8819999694824219,0.8989999294281006,0.9159998893737793,0.931999921798706,0.9489998817443848,0.9659998416900635,0.9830000400543213,0.999000072479248,1.0160000324249268,1.0329999923706055,1.0490000247955322,1.065999984741211,1.0829999446868896,1.0989999771118164,1.1159999370574951,1.1319999694824219,1.1489999294281006,1.1659998893737793,1.182999849319458,1.2000000476837158,1.2159998416900635,1.2339999675750732,1.25,1.2660000324249268,1.2829999923706055,1.2990000247955322,1.316999912261963,1.3329999446868896,1.3489999771118164,1.3659999370574951,1.3819999694824219,1.3989999294281006,1.4159998893737793,1.431999921798706,1.4489998817443848,1.4659998416900635,1.4830000400543213,1.5,1.5160000324249268,1.5329999923706055,1.5499999523162842,1.565999984741211,1.5829999446868896,1.5999999046325684,1.6159999370574951,1.6329998970031738,1.6499998569488525,1.6659998893737793,1.682999849319458,1.7000000476837158,1.7159998416900635,1.7330000400543213,1.75,1.7660000324249268,1.7829999923706055,1.7999999523162842,1.815999984741211,1.8329999446868896,1.8499999046325684,1.8659999370574951,1.8829998970031738,1.8999998569488525,1.9159998893737793,1.932999849319458,1.9489998817443848,1.9659998416900635,1.9819998741149902,1.999000072479248,2.0160000324249268,2.0329999923706055,2.049999952316284,2.065999984741211,2.0829999446868896,2.0999999046325684,2.116999864578247,2.132999897003174,2.1489999294281006,2.1659998893737793,2.182999849319458,2.1989998817443848,2.2170000076293945,2.2330000400543213,2.249000072479248,2.2660000324249268,2.2829999923706055,2.2990000247955322,2.315999984741211,2.3320000171661377,2.3499999046325684,2.365999937057495,2.381999969482422,2.3989999294281006,2.4159998893737793,2.431999921798706]",,[],[],NaN,-144,12.5,0,space,0.417000055,40,0,40,0,1,39,,,,,,,,,,,,,,,,,,
,,,,,,,,,,,,,,,,,,,,,,,,,,,,,,,,,,,1,0,1,0,1,0,,,,,,,Pilot1,,,2020-06-25_10h49.51.459,AvatarExp_SD,3.1.2,60,,,,,500,400,0,const,3.5,140,left,367,167,"[1,1,1,1,1,1,1,1,1,1,1,1,1,1,1,1,1,2,4,80,101,122,144,165,178,191,208,227,237,247,256,272,295,310,316,320,326,335,349,359,363,363,364,365,366,367,367,367,367,367,367,365,363,358,353,347,335,316,288,246,207,176,144,105,65,39,20,11,4,0,-2,-3,-4,-5,-7,-8,-8,-8,-8,-8,-8,-8,-8,-8,-7,-7]","[-198.5,-198.5,-198.5,-198.5,-198.5,-198.5,-198.5,-198.5,-198.5,-198.5,-198.5,-198.5,-198.5,-198.5,-198.5,-198.5,-198.5,-193.5,-186.5,-0.5,16.5,31.5,44.5,55.5,62.5,68.5,74.5,80.5,82.5,85.5,86.5,90.5,93.5,94.5,97.5,98.5,101.5,102.5,105.5,106.5,106.5,106.5,106.5,106.5,106.5,106.5,106.5,106.5,107.5,107.5,107.5,106.5,105.5,101.5,94.5,85.5,71.5,53.5,34.5,9.5,-11.5,-31.5,-49.5,-69.5,-93.5,-113.5,-139.5,-157.5,-168.5,-172.5,-174.5,-175.5,-175.5,-178.5,-180.5,-181.5,-182.5,-182.5,-183.5,-185.5,-190.5,-193.5,-195.5,-195.5,-195.5,-195.5]","[0,0,0,0,0,0,0,0,0,0,0,0,0,0,0,0,0,0,0,0,0,0,0,0,0,0,0,0,0,0,0,0,0,0,0,0,0,0,0,0,0,0,0,0,0,0,0,1,1,1,0,0,0,0,0,0,0,0,0,0,0,0,0,0,0,0,0,0,0,0,0,0,0,0,0,0,0,0,0,0,0,0,0,0,0,1]","[0,0,0,0,0,0,0,0,0,0,0,0,0,0,0,0,0,0,0,0,0,0,0,0,0,0,0,0,0,0,0,0,0,0,0,0,0,0,0,0,0,0,0,0,0,0,0,0,0,0,0,0,0,0,0,0,0,0,0,0,0,0,0,0,0,0,0,0,0,0,0,0,0,0,0,0,0,0,0,0,0,0,0,0,0,0]","[0,0,0,0,0,0,0,0,0,0,0,0,0,0,0,0,0,0,0,0,0,0,0,0,0,0,0,0,0,0,0,0,0,0,0,0,0,0,0,0,0,0,0,0,0,0,0,0,0,0,0,0,0,0,0,0,0,0,0,0,0,0,0,0,0,0,0,0,0,0,0,0,0,0,0,0,0,0,0,0,0,0,0,0,0,0]","[0.0009999275207519531,0.016000032424926758,0.032000064849853516,0.04900002479553223,0.06599998474121094,0.0820000171661377,0.0989999771118164,0.11599993705749512,0.13299989700317383,0.14899992942810059,0.1660001277923584,0.18199992179870605,0.19900012016296387,0.21600008010864258,0.2330000400543213,0.24900007247924805,0.26600003242492676,0.3169999122619629,0.3299999237060547,0.47300004959106445,0.4890000820159912,0.5039999485015869,0.5209999084472656,0.5380001068115234,0.5550000667572021,0.5710000991821289,0.5880000591278076,0.6070001125335693,0.621999979019165,0.6380000114440918,0.6549999713897705,0.6719999313354492,0.687999963760376,0.7049999237060547,0.7209999561309814,0.7379999160766602,0.7539999485015869,0.7709999084472656,0.7880001068115234,0.8039999008178711,0.8210000991821289,0.8369998931884766,0.8540000915527344,0.8710000514984131,0.8880000114440918,0.9040000438690186,0.9210000038146973,0.937999963760376,0.9549999237060547,0.9709999561309814,0.9890000820159912,1.005000114440918,1.0220000743865967,1.0380001068115234,1.0550000667572021,1.0720000267028809,1.0880000591278076,1.1050000190734863,1.121999979019165,1.1380000114440918,1.1549999713897705,1.1710000038146973,1.187999963760376,1.2039999961853027,1.2220001220703125,1.2379999160766602,1.253999948501587,1.2720000743865967,1.2880001068115234,1.3050000667572021,1.321000099182129,1.3380000591278076,1.3550000190734863,1.371000051498413,1.3880000114440918,1.4049999713897705,1.4210000038146973,1.437000036239624,1.4539999961853027,1.4709999561309814,1.4879999160766602,1.505000114440918,1.5209999084472656,1.5380001068115234,1.5550000667572021,1.571000099182129]",,[],[],NaN,132.5,12.5,0,space,0.80099988,40,0,40,0,1,39,,,,,,,,,,,,,,,,,,
,,,,,,,,,,,,,,,,,,,,,,,,,,,,,,,,,,,1,0,1,0,1,0,,,,,,,Pilot1,,,2020-06-25_10h49.51.459,AvatarExp_SD,3.1.2,60,,,,,300,200,0,const,3.5,97,left,-14,97,"[-73,-73,-73,-73,-73,-73,-73,-73,-73,-73,-73,-73,-73,-73,-72,-70,-68,-66,-64,-63,-61,-60,-56,-52,-48,-45,-42,-39,-35,-33,-31,-29,-27,-25,-24,-22,-21,-21,-21,-21,-21,-22,-26,-29,-32,-36,-40,-41,-41,-41,-41,-41,-41,-41,-41,-39,-34,-27,-22,-18,-17,-17,-17,-16,-14,-14,-14,-14,-14,-14,-14,-14,-14,-14,-14,-14,-14,-14,-15,-16,-17,-18,-18,-18,-19,-21,-23,-24,-24,-23,-18,-16,-15,-13,-12,-11,-11,-10,-9,-8,-7,-7,-7,-7,-6,-5,-4,-4,-3,-3,-3]","[-104.5,-104.5,-104.5,-104.5,-104.5,-104.5,-104.5,-104.5,-104.5,-104.5,-104.5,-104.5,-104.5,-103.5,-101.5,-98.5,-92.5,-86.5,-78.5,-74.5,-70.5,-63.5,-53.5,-43.5,-34.5,-24.5,-15.5,-6.5,1.5,9.5,18.5,25.5,31.5,38.5,45.5,51.5,58.5,64.5,69.5,75.5,80.5,85.5,89.5,94.5,97.5,99.5,101.5,102.5,102.5,102.5,102.5,102.5,102.5,102.5,102.5,103.5,103.5,103.5,102.5,100.5,100.5,100.5,100.5,100.5,99.5,99.5,99.5,99.5,99.5,99.5,99.5,99.5,99.5,99.5,99.5,99.5,99.5,99.5,98.5,98.5,97.5,94.5,85.5,72.5,56.5,35.5,11.5,-19.5,-56.5,-91.5,-121.5,-148.5,-163.5,-173.5,-179.5,-184.5,-185.5,-186.5,-187.5,-188.5,-188.5,-189.5,-190.5,-190.5,-191.5,-191.5,-192.5,-192.5,-193.5,-193.5,-193.5]","[0,0,0,0,0,0,0,0,0,0,0,0,0,0,0,0,0,0,0,0,0,0,0,0,0,0,0,0,0,0,0,0,0,0,0,0,0,0,0,0,0,0,0,0,0,0,0,0,0,0,0,0,0,0,0,0,0,0,0,0,0,0,0,0,0,0,0,0,0,0,0,0,1,1,1,1,1,0,0,0,0,0,0,0,0,0,0,0,0,0,0,0,0,0,0,0,0,0,0,0,0,0,0,0,0,0,0,0,0,0,1]","[0,0,0,0,0,0,0,0,0,0,0,0,0,0,0,0,0,0,0,0,0,0,0,0,0,0,0,0,0,0,0,0,0,0,0,0,0,0,0,0,0,0,0,0,0,0,0,0,0,0,0,0,0,0,0,0,0,0,0,0,0,0,0,0,0,0,0,0,0,0,0,0,0,0,0,0,0,0,0,0,0,0,0,0,0,0,0,0,0,0,0,0,0,0,0,0,0,0,0,0,0,0,0,0,0,0,0,0,0,0,0]","[0,0,0,0,0,0,0,0,0,0,0,0,0,0,0,0,0,0,0,0,0,0,0,0,0,0,0,0,0,0,0,0,0,0,0,0,0,0,0,0,0,0,0,0,0,0,0,0,0,0,0,0,0,0,0,0,0,0,0,0,0,0,0,0,0,0,0,0,0,0,0,0,0,0,0,0,0,0,0,0,0,0,0,0,0,0,0,0,0,0,0,0,0,0,0,0,0,0,0,0,0,0,0,0,0,0,0,0,0,0,0]","[0,0.01699995994567871,0.031999826431274414,0.04799985885620117,0.06499981880187988,0.08099985122680664,0.09799981117248535,0.11500000953674316,0.13100004196166992,0.14800000190734863,0.1640000343322754,0.1809999942779541,0.1979999542236328,0.21499991416931152,0.23199987411499023,0.24899983406066895,0.2649998664855957,0.2819998264312744,0.2990000247955322,0.3149998188018799,0.3320000171661377,0.3489999771118164,0.36500000953674316,0.3819999694824219,0.3989999294281006,0.41499996185302734,0.43199992179870605,0.44899988174438477,0.4649999141693115,0.48199987411499023,0.49899983406066895,0.5149998664855957,0.5319998264312744,0.5490000247955322,0.5649998188018799,0.5820000171661377,0.5989999771118164,0.6150000095367432,0.6319999694824219,0.6489999294281006,0.6649999618530273,0.681999921798706,0.6989998817443848,0.7149999141693115,0.7319998741149902,0.748999834060669,0.7649998664855957,0.7849998474121094,0.8029999732971191,0.8199999332427979,0.8379998207092285,0.8529999256134033,0.8689999580383301,0.8849999904632568,0.9019999504089355,0.9199998378753662,0.934999942779541,0.9519999027252197,0.9679999351501465,0.9839999675750732,1.000999927520752,1.0179998874664307,1.0339999198913574,1.0509998798370361,1.0929999351501465,1.1009998321533203,1.1099998950958252,1.126999855041504,1.1429998874664307,1.1599998474121094,1.1770000457763672,1.1929998397827148,1.2109999656677246,1.2269999980926514,1.24399995803833,1.2609999179840088,1.2769999504089355,1.2939999103546143,1.310999870300293,1.3269999027252197,1.3450000286102295,1.3609998226165771,1.376999855041504,1.3939998149871826,1.4110000133514404,1.4279999732971191,1.444000005722046,1.4609999656677246,1.4769999980926514,1.49399995803833,1.5109999179840088,1.5269999504089355,1.5439999103546143,1.560999870300293,1.5779998302459717,1.5939998626708984,1.6109998226165771,1.628000020980835,1.6439998149871826,1.6610000133514404,1.6770000457763672,1.694000005722046,1.7109999656677246,1.7269999980926514,1.74399995803833,1.7609999179840088,1.7769999504089355,1.7939999103546143,1.810999870300293,1.8269999027252197,1.8439998626708984]",,[],[],NaN,-175,-12,1,space,0.653000116,40,0,40,0,1,39,,,,,,,,,,,,,,,,,,
,,,,,,,,,,,,,,,,,,,,,,,,,,,,,,,,,,,1,0,1,0,1,0,,,,,,,Pilot1,,,2020-06-25_10h49.51.459,AvatarExp_SD,3.1.2,60,,,,,500,400,0,const,3.5,92,right,-342,-76,"[-146,-146,-146,-146,-146,-146,-146,-146,-146,-146,-146,-146,-146,-144,-141,-131,-111,-93,-78,-62,-46,-32,-24,-22,-21,-21,-24,-28,-34,-42,-53,-72,-93,-114,-138,-160,-187,-220,-246,-264,-277,-286,-292,-298,-300,-301,-305,-310,-316,-321,-322,-322,-322,-322,-323,-326,-330,-335,-339,-342,-342,-342,-342,-342,-342,-342,-342,-342,-342,-342,-342,-341,-338,-334,-330,-323,-315,-308,-301,-294,-289,-281,-265,-250,-233,-209,-188,-166,-135,-104,-79,-59,-48,-44,-42,-41,-41,-41,-41,-41,-39,-37,-37,-37,-37,-36,-34,-32,-30,-29,-29,-27,-24,-22,-21,-21,-21,-21]","[-201.5,-201.5,-200.5,-200.5,-200.5,-200.5,-200.5,-200.5,-200.5,-200.5,-200.5,-200.5,-200.5,-200.5,-199.5,-195.5,-184.5,-169.5,-152.5,-130.5,-103.5,-70.5,-35.5,-10.5,10.5,26.5,34.5,40.5,46.5,52.5,58.5,66.5,72.5,77.5,79.5,82.5,87.5,92.5,96.5,99.5,101.5,101.5,101.5,101.5,101.5,101.5,101.5,101.5,101.5,101.5,101.5,101.5,101.5,101.5,101.5,102.5,103.5,104.5,105.5,106.5,106.5,106.5,106.5,106.5,106.5,106.5,106.5,106.5,106.5,106.5,106.5,104.5,100.5,93.5,86.5,77.5,65.5,52.5,40.5,25.5,11.5,-5.5,-29.5,-51.5,-72.5,-90.5,-102.5,-112.5,-127.5,-146.5,-160.5,-169.5,-175.5,-178.5,-179.5,-179.5,-179.5,-179.5,-179.5,-179.5,-180.5,-181.5,-182.5,-182.5,-182.5,-182.5,-182.5,-182.5,-183.5,-183.5,-183.5,-184.5,-184.5,-185.5,-185.5,-185.5,-185.5,-185.5]","[0,0,0,0,0,0,0,0,0,0,0,0,0,0,0,0,0,0,0,0,0,0,0,0,0,0,0,0,0,0,0,0,0,0,0,0,0,0,0,0,0,0,0,0,0,0,0,0,0,0,0,0,0,0,0,0,0,0,0,0,0,0,1,1,1,1,1,0,0,0,0,0,0,0,0,0,0,0,0,0,0,0,0,0,0,0,0,0,0,0,0,0,0,0,0,0,0,0,0,0,0,0,0,0,0,0,0,0,0,0,0,0,0,0,0,0,0,1]","[0,0,0,0,0,0,0,0,0,0,0,0,0,0,0,0,0,0,0,0,0,0,0,0,0,0,0,0,0,0,0,0,0,0,0,0,0,0,0,0,0,0,0,0,0,0,0,0,0,0,0,0,0,0,0,0,0,0,0,0,0,0,0,0,0,0,0,0,0,0,0,0,0,0,0,0,0,0,0,0,0,0,0,0,0,0,0,0,0,0,0,0,0,0,0,0,0,0,0,0,0,0,0,0,0,0,0,0,0,0,0,0,0,0,0,0,0,0]","[0,0,0,0,0,0,0,0,0,0,0,0,0,0,0,0,0,0,0,0,0,0,0,0,0,0,0,0,0,0,0,0,0,0,0,0,0,0,0,0,0,0,0,0,0,0,0,0,0,0,0,0,0,0,0,0,0,0,0,0,0,0,0,0,0,0,0,0,0,0,0,0,0,0,0,0,0,0,0,0,0,0,0,0,0,0,0,0,0,0,0,0,0,0,0,0,0,0,0,0,0,0,0,0,0,0,0,0,0,0,0,0,0,0,0,0,0,0]","[0,0.015000104904174805,0.032000064849853516,0.04900002479553223,0.06500005722045898,0.0820000171661377,0.0989999771118164,0.11599993705749512,0.13199996948242188,0.14899992942810059,0.16499996185302734,0.18199992179870605,0.19900012016296387,0.21600008010864258,0.2330000400543213,0.24900007247924805,0.26600003242492676,0.28299999237060547,0.2999999523162842,0.31599998474121094,0.3320000171661377,0.3489999771118164,0.3659999370574951,0.3819999694824219,0.3989999294281006,0.4160001277923584,0.43199992179870605,0.44900012016296387,0.4660000801086426,0.48200011253356934,0.49900007247924805,0.5160000324249268,0.5329999923706055,0.5490000247955322,0.5659999847412109,0.5829999446868896,0.5989999771118164,0.6159999370574951,0.6319999694824219,0.6489999294281006,0.6660001277923584,0.6830000877380371,0.6990001201629639,0.7160000801086426,0.7330000400543213,0.749000072479248,0.7660000324249268,0.7829999923706055,0.7990000247955322,0.8159999847412109,0.8320000171661377,0.8489999771118164,0.8659999370574951,0.8819999694824219,0.8989999294281006,0.9160001277923584,0.931999921798706,0.9490001201629639,0.9660000801086426,0.9830000400543213,0.999000072479248,1.0160000324249268,1.0329999923706055,1.0490000247955322,1.065999984741211,1.0829999446868896,1.0989999771118164,1.1159999370574951,1.1319999694824219,1.1489999294281006,1.1660001277923584,1.183000087738037,1.2000000476837158,1.2160000801086426,1.2330000400543213,1.25,1.2660000324249268,1.2829999923706055,1.2999999523162842,1.315999984741211,1.3329999446868896,1.3499999046325684,1.3659999370574951,1.3829998970031738,1.4000000953674316,1.4160001277923584,1.433000087738037,1.4500000476837158,1.4660000801086426,1.4830000400543213,1.5,1.5160000324249268,1.5329999923706055,1.5499999523162842,1.565999984741211,1.5829999446868896,1.5989999771118164,1.6159999370574951,1.6319999694824219,1.6489999294281006,1.6660001277923584,1.683000087738037,1.6990001201629639,1.7160000801086426,1.7320001125335693,1.749000072479248,1.7660000324249268,1.7829999923706055,1.7999999523162842,1.815999984741211,1.8329999446868896,1.8489999771118164,1.8659999370574951,1.8829998970031738,1.9000000953674316,1.9160001277923584,1.931999921798706,1.9490001201629639]",,[],[],NaN,-121.5,-1.5,0,space,1.043000221,40,0,40,0,1,39,,,,,,,,,,,,,,,,,,
,,,,,,,,,,,,,,,,,,,,,,,,,,,,,,,,,,,1,0,1,0,1,0,,,,,,,Pilot1,,,2020-06-25_10h49.51.459,AvatarExp_SD,3.1.2,60,,,,,500,400,0,const,3.5,70,right,-362,51,"[-8,-8,-8,-8,-8,-8,-8,-8,-8,-8,-8,-8,-8,-6,-2,1,2,2,2,2,3,5,6,5,2,-2,-4,-5,-5,-5,-5,-6,-8,-15,-30,-47,-71,-111,-161,-221,-277,-302,-311,-314,-315,-319,-326,-333,-340,-347,-350,-352,-353,-358,-367,-381,-390,-393,-393,-393,-393,-394,-394,-389,-375,-359,-347,-340,-340,-340,-340,-340,-340,-340,-340,-342,-345,-349,-352,-357,-359,-361,-362,-362,-362,-362,-362,-362,-362,-362,-362,-362,-362,-362,-358,-353,-346,-338,-325,-303,-279,-245,-201,-161,-129,-106,-91,-76,-62,-51,-45,-42,-40,-40,-40,-39,-37,-32,-30,-29,-27,-25,-22,-21,-19,-18,-18,-18,-18,-18,-18]","[-67.5,-67.5,-67.5,-67.5,-67.5,-67.5,-67.5,-67.5,-67.5,-67.5,-67.5,-67.5,-67.5,-65.5,-62.5,-57.5,-48.5,-36.5,-23.5,-5.5,12.5,30.5,49.5,66.5,80.5,93.5,102.5,106.5,109.5,111.5,112.5,114.5,116.5,117.5,118.5,118.5,118.5,116.5,113.5,110.5,107.5,105.5,105.5,105.5,105.5,104.5,103.5,102.5,102.5,102.5,102.5,101.5,101.5,101.5,101.5,101.5,101.5,101.5,101.5,101.5,101.5,101.5,101.5,101.5,103.5,105.5,106.5,106.5,106.5,106.5,106.5,106.5,106.5,106.5,106.5,107.5,108.5,109.5,110.5,110.5,111.5,112.5,112.5,112.5,112.5,112.5,112.5,112.5,112.5,112.5,112.5,112.5,112.5,111.5,103.5,94.5,79.5,59.5,29.5,-12.5,-50.5,-88.5,-120.5,-138.5,-149.5,-154.5,-157.5,-160.5,-162.5,-163.5,-164.5,-165.5,-166.5,-166.5,-166.5,-166.5,-168.5,-170.5,-171.5,-174.5,-176.5,-179.5,-181.5,-184.5,-186.5,-186.5,-186.5,-186.5,-186.5,-186.5,-186.5]","[0,0,0,0,0,0,0,0,0,0,0,0,0,0,0,0,0,0,0,0,0,0,0,0,0,0,0,0,0,0,0,0,0,0,0,0,0,0,0,0,0,0,0,0,0,0,0,0,0,0,0,0,0,0,0,0,0,0,0,0,0,0,0,0,0,0,0,0,0,0,0,0,0,0,0,0,0,0,0,0,0,0,0,0,1,1,1,1,1,1,0,0,0,0,0,0,0,0,0,0,0,0,0,0,0,0,0,0,0,0,0,0,0,0,0,0,0,0,0,0,0,0,0,0,0,0,0,0,0,0,1]","[0,0,0,0,0,0,0,0,0,0,0,0,0,0,0,0,0,0,0,0,0,0,0,0,0,0,0,0,0,0,0,0,0,0,0,0,0,0,0,0,0,0,0,0,0,0,0,0,0,0,0,0,0,0,0,0,0,0,0,0,0,0,0,0,0,0,0,0,0,0,0,0,0,0,0,0,0,0,0,0,0,0,0,0,0,0,0,0,0,0,0,0,0,0,0,0,0,0,0,0,0,0,0,0,0,0,0,0,0,0,0,0,0,0,0,0,0,0,0,0,0,0,0,0,0,0,0,0,0,0,0]","[0,0,0,0,0,0,0,0,0,0,0,0,0,0,0,0,0,0,0,0,0,0,0,0,0,0,0,0,0,0,0,0,0,0,0,0,0,0,0,0,0,0,0,0,0,0,0,0,0,0,0,0,0,0,0,0,0,0,0,0,0,0,0,0,0,0,0,0,0,0,0,0,0,0,0,0,0,0,0,0,0,0,0,0,0,0,0,0,0,0,0,0,0,0,0,0,0,0,0,0,0,0,0,0,0,0,0,0,0,0,0,0,0,0,0,0,0,0,0,0,0,0,0,0,0,0,0,0,0,0,0]","[0,0.014999866485595703,0.032000064849853516,0.04799985885620117,0.06500005722045898,0.0820000171661377,0.0989999771118164,0.11500000953674316,0.13199996948242188,0.14800000190734863,0.16499996185302734,0.18199992179870605,0.19899988174438477,0.21499991416931152,0.23199987411499023,0.24900007247924805,0.26600003242492676,0.2820000648498535,0.2990000247955322,0.31599998474121094,0.33299994468688965,0.3489999771118164,0.3659999370574951,0.38299989700317383,0.3989999294281006,0.4159998893737793,0.43199992179870605,0.44899988174438477,0.4649999141693115,0.48199987411499023,0.49900007247924805,0.5160000324249268,0.5320000648498535,0.5490000247955322,0.5659999847412109,0.5820000171661377,0.5989999771118164,0.6159999370574951,0.6319999694824219,0.6489999294281006,0.6649999618530273,0.681999921798706,0.6989998817443848,0.7160000801086426,0.7319998741149902,0.749000072479248,0.7660000324249268,0.7820000648498535,0.7990000247955322,0.815000057220459,0.8320000171661377,0.8489999771118164,0.8659999370574951,0.8819999694824219,0.8989999294281006,0.9149999618530273,0.931999921798706,0.9489998817443848,0.9649999141693115,0.9819998741149902,0.997999906539917,1.0149998664855957,1.0320000648498535,1.0490000247955322,1.065999984741211,1.0829999446868896,1.0989999771118164,1.1159999370574951,1.1319999694824219,1.1480000019073486,1.1649999618530273,1.181999921798706,1.1989998817443848,1.2149999141693115,1.2319998741149902,1.249000072479248,1.2660000324249268,1.2820000648498535,1.2990000247955322,1.3320000171661377,1.3489999771118164,1.3650000095367432,1.3819999694824219,1.3980000019073486,1.4159998893737793,1.432999849319458,1.4489998817443848,1.4660000801086426,1.4819998741149902,1.499000072479248,1.5160000324249268,1.5320000648498535,1.5490000247955322,1.565999984741211,1.5850000381469727,1.5999999046325684,1.6159999370574951,1.6329998970031738,1.6499998569488525,1.6659998893737793,1.682999849319458,1.7000000476837158,1.7160000801086426,1.7330000400543213,1.75,1.7660000324249268,1.7829999923706055,1.7990000247955322,1.815999984741211,1.8329999446868896,1.8489999771118164,1.8659999370574951,1.8829998970031738,1.8989999294281006,1.9159998893737793,1.932999849319458,1.9489998817443848,1.9660000801086426,1.9830000400543213,2,2.0160000324249268,2.0329999923706055,2.049999952316284,2.065999984741211,2.0829999446868896,2.0999999046325684,2.115999937057495,2.131999969482422,2.1489999294281006,2.1659998893737793,2.181999921798706]",,[],[],NaN,-183.5,19.5,0,space,0.903999805,40,0,40,0,1,39,,,,,,,,,,,,,,,,,,
,,,,,,,,,,,,,,,,,,,,,,,,,,,,,,,,,,,1,0,1,0,1,0,,,,,,,Pilot1,,,2020-06-25_10h49.51.459,AvatarExp_SD,3.1.2,60,,,,,400,300,0,const,3.5,109,left,-256,-95,"[-121,-121,-121,-121,-121,-121,-121,-121,-121,-121,-121,-121,-121,-121,-121,-121,-119,-117,-113,-105,-96,-90,-85,-80,-73,-69,-68,-68,-69,-69,-68,-65,-62,-59,-57,-56,-54,-54,-53,-53,-53,-54,-61,-71,-83,-102,-128,-164,-197,-222,-240,-249,-254,-256,-260,-268,-274,-277,-277,-277,-278,-278,-276,-274,-270,-267,-264,-262,-261,-259,-257,-256,-256,-256,-256,-256,-256,-256,-256,-256,-256,-255,-251,-241,-226,-206,-188,-173,-162,-150,-133,-116,-100,-83,-69,-56,-44,-35,-28,-25,-23,-21,-17,-14,-11,-7,-3,-1,0,1,1,1,1,1]","[-220.5,-220.5,-220.5,-220.5,-220.5,-220.5,-220.5,-220.5,-220.5,-220.5,-220.5,-220.5,-220.5,-220.5,-220.5,-219.5,-219.5,-219.5,-217.5,-214.5,-208.5,-198.5,-184.5,-164.5,-137.5,-112.5,-86.5,-55.5,-29.5,-6.5,12.5,25.5,35.5,40.5,45.5,50.5,54.5,56.5,58.5,58.5,58.5,61.5,63.5,66.5,69.5,72.5,75.5,78.5,81.5,81.5,81.5,82.5,83.5,83.5,84.5,84.5,85.5,86.5,86.5,86.5,87.5,88.5,89.5,93.5,95.5,98.5,99.5,100.5,101.5,103.5,105.5,106.5,107.5,107.5,107.5,107.5,107.5,107.5,107.5,106.5,100.5,85.5,67.5,39.5,8.5,-28.5,-64.5,-94.5,-110.5,-120.5,-131.5,-138.5,-143.5,-146.5,-148.5,-152.5,-156.5,-159.5,-163.5,-164.5,-165.5,-168.5,-170.5,-175.5,-179.5,-183.5,-187.5,-190.5,-192.5,-192.5,-192.5,-192.5,-192.5,-192.5]","[0,0,0,0,0,0,0,0,0,0,0,0,0,0,0,0,0,0,0,0,0,0,0,0,0,0,0,0,0,0,0,0,0,0,0,0,0,0,0,0,0,0,0,0,0,0,0,0,0,0,0,0,0,0,0,0,0,0,0,0,0,0,0,0,0,0,0,0,0,0,0,0,0,1,1,1,1,0,0,0,0,0,0,0,0,0,0,0,0,0,0,0,0,0,0,0,0,0,0,0,0,0,0,0,0,0,0,0,0,0,0,0,0,1]","[0,0,0,0,0,0,0,0,0,0,0,0,0,0,0,0,0,0,0,0,0,0,0,0,0,0,0,0,0,0,0,0,0,0,0,0,0,0,0,0,0,0,0,0,0,0,0,0,0,0,0,0,0,0,0,0,0,0,0,0,0,0,0,0,0,0,0,0,0,0,0,0,0,0,0,0,0,0,0,0,0,0,0,0,0,0,0,0,0,0,0,0,0,0,0,0,0,0,0,0,0,0,0,0,0,0,0,0,0,0,0,0,0,0]","[0,0,0,0,0,0,0,0,0,0,0,0,0,0,0,0,0,0,0,0,0,0,0,0,0,0,0,0,0,0,0,0,0,0,0,0,0,0,0,0,0,0,0,0,0,0,0,0,0,0,0,0,0,0,0,0,0,0,0,0,0,0,0,0,0,0,0,0,0,0,0,0,0,0,0,0,0,0,0,0,0,0,0,0,0,0,0,0,0,0,0,0,0,0,0,0,0,0,0,0,0,0,0,0,0,0,0,0,0,0,0,0,0,0]","[0,0.015000104904174805,0.03099989891052246,0.04800009727478027,0.06500005722045898,0.08100008964538574,0.09800004959106445,0.11500000953674316,0.13199996948242188,0.14800000190734863,0.16499996185302734,0.1809999942779541,0.1979999542236328,0.21499991416931152,0.23200011253356934,0.247999906539917,0.2650001049041748,0.2820000648498535,0.2980000972747803,0.315000057220459,0.3320000171661377,0.3489999771118164,0.36500000953674316,0.3819999694824219,0.3989999294281006,0.41499996185302734,0.43199992179870605,0.4479999542236328,0.4649999141693115,0.48200011253356934,0.497999906539917,0.5150001049041748,0.5320000648498535,0.5480000972747803,0.565000057220459,0.5820000171661377,0.5989999771118164,0.6159999370574951,0.6319999694824219,0.6480000019073486,0.6649999618530273,0.681999921798706,0.6979999542236328,0.7149999141693115,0.7320001125335693,0.747999906539917,0.7660000324249268,0.7820000648498535,0.7980000972747803,0.815000057220459,0.8340001106262207,0.8489999771118164,0.8650000095367432,0.8819999694824219,0.8980000019073486,0.9149999618530273,0.931999921798706,0.9490001201629639,0.9649999141693115,0.9809999465942383,0.997999906539917,1.0169999599456787,1.0320000648498535,1.0490000247955322,1.065000057220459,1.0820000171661377,1.0980000495910645,1.1150000095367432,1.1319999694824219,1.1489999294281006,1.1649999618530273,1.181999921798706,1.1990001201629639,1.2149999141693115,1.2320001125335693,1.249000072479248,1.2660000324249268,1.2820000648498535,1.2990000247955322,1.315999984741211,1.3320000171661377,1.3489999771118164,1.3659999370574951,1.3819999694824219,1.3989999294281006,1.4159998893737793,1.431999921798706,1.4490001201629639,1.4660000801086426,1.4820001125335693,1.499000072479248,1.5160000324249268,1.5320000648498535,1.5490000247955322,1.565999984741211,1.5829999446868896,1.5989999771118164,1.6159999370574951,1.6319999694824219,1.6489999294281006,1.6659998893737793,1.681999921798706,1.6990001201629639,1.7149999141693115,1.7320001125335693,1.75,1.7660000324249268,1.7820000648498535,1.7990000247955322,1.815999984741211,1.8320000171661377,1.8489999771118164,1.8650000095367432,1.8819999694824219]",,[],[],NaN,-273.5,-1.5,1,space,1.949999809,40,0,40,0,1,39,,,,,,,,,,,,,,,,,,
,,,,,,,,,,,,,,,,,,,,,,,,,,,,,,,,,,,1,0,1,0,1,0,,,,,,,Pilot1,,,2020-06-25_10h49.51.459,AvatarExp_SD,3.1.2,60,,,,,300,200,0,const,3.5,115,left,-14,49,"[-106,-106,-106,-106,-106,-106,-106,-106,-106,-106,-106,-106,-106,-106,-103,-90,-65,-33,-17,-4,1,1,-1,1,10,16,20,21,21,18,17,16,16,16,16,15,12,11,8,6,5,3,1,-1,-3,-4,-4,-4,-4,-4,-4,-6,-7,-8,-8,-8,-8,-9,-10,-13,-14,-14,-14,-14,-14,-14,-14,-14,-14,-14,-14,-14,-14,-15,-15,-15,-17,-19,-19,-19,-19,-18,-18,-18,-18,-18,-18,-17,-16,-16,-16,-15,-14,-13,-13,-12,-11,-11,-11,-11,-11,-11,-11,-11]","[-184.5,-184.5,-184.5,-184.5,-184.5,-184.5,-184.5,-184.5,-184.5,-184.5,-184.5,-184.5,-184.5,-184.5,-181.5,-176.5,-166.5,-147.5,-132.5,-106.5,-73.5,-39.5,-6.5,19.5,37.5,49.5,57.5,62.5,65.5,69.5,73.5,78.5,84.5,89.5,92.5,95.5,98.5,101.5,103.5,103.5,104.5,104.5,104.5,104.5,104.5,104.5,104.5,104.5,104.5,104.5,104.5,104.5,104.5,104.5,103.5,103.5,103.5,103.5,103.5,102.5,102.5,102.5,102.5,102.5,102.5,102.5,102.5,102.5,102.5,102.5,102.5,102.5,101.5,97.5,88.5,74.5,56.5,33.5,10.5,-15.5,-48.5,-74.5,-92.5,-107.5,-118.5,-127.5,-135.5,-142.5,-151.5,-157.5,-160.5,-164.5,-167.5,-172.5,-175.5,-182.5,-186.5,-188.5,-189.5,-189.5,-189.5,-189.5,-189.5,-189.5]","[0,0,0,0,0,0,0,0,0,0,0,0,0,0,0,0,0,0,0,0,0,0,0,0,0,0,0,0,0,0,0,0,0,0,0,0,0,0,0,0,0,0,0,0,0,0,0,0,0,0,0,0,0,0,0,0,0,0,0,0,0,0,0,0,0,0,1,1,1,1,1,0,0,0,0,0,0,0,0,0,0,0,0,0,0,0,0,0,0,0,0,0,0,0,0,0,0,0,0,0,0,0,0,1]","[0,0,0,0,0,0,0,0,0,0,0,0,0,0,0,0,0,0,0,0,0,0,0,0,0,0,0,0,0,0,0,0,0,0,0,0,0,0,0,0,0,0,0,0,0,0,0,0,0,0,0,0,0,0,0,0,0,0,0,0,0,0,0,0,0,0,0,0,0,0,0,0,0,0,0,0,0,0,0,0,0,0,0,0,0,0,0,0,0,0,0,0,0,0,0,0,0,0,0,0,0,0,0,0]","[0,0,0,0,0,0,0,0,0,0,0,0,0,0,0,0,0,0,0,0,0,0,0,0,0,0,0,0,0,0,0,0,0,0,0,0,0,0,0,0,0,0,0,0,0,0,0,0,0,0,0,0,0,0,0,0,0,0,0,0,0,0,0,0,0,0,0,0,0,0,0,0,0,0,0,0,0,0,0,0,0,0,0,0,0,0,0,0,0,0,0,0,0,0,0,0,0,0,0,0,0,0,0,0]","[0,0.016000032424926758,0.031999826431274414,0.04799985885620117,0.06499981880187988,0.0820000171661377,0.0989999771118164,0.11500000953674316,0.13199996948242188,0.14899992942810059,0.16499996185302734,0.18199992179870605,0.1979999542236328,0.21499991416931152,0.23199987411499023,0.24899983406066895,0.26600003242492676,0.2819998264312744,0.2990000247955322,0.31599998474121094,0.3320000171661377,0.3489999771118164,0.3659999370574951,0.3819999694824219,0.3989999294281006,0.4159998893737793,0.43199992179870605,0.44899988174438477,0.4659998416900635,0.48199987411499023,0.49899983406066895,0.5160000324249268,0.5319998264312744,0.5490000247955322,0.5659999847412109,0.5820000171661377,0.5989999771118164,0.6159999370574951,0.6319999694824219,0.6489999294281006,0.6659998893737793,0.681999921798706,0.6989998817443848,0.7149999141693115,0.7319998741149902,0.748999834060669,0.7649998664855957,0.7809998989105225,0.7979998588562012,0.8149998188018799,0.8309998512268066,0.8479998111724854,0.8650000095367432,0.8819999694824219,0.8980000019073486,0.9149999618530273,0.9309999942779541,0.9489998817443848,0.9649999141693115,0.9819998741149902,0.998999834060669,1.0149998664855957,1.0319998264312744,1.0479998588562012,1.0649998188018799,1.0820000171661377,1.0989999771118164,1.116999864578247,1.1319999694824219,1.1489999294281006,1.1659998893737793,1.181999921798706,1.1989998817443848,1.2159998416900635,1.2319998741149902,1.248999834060669,1.2660000324249268,1.2819998264312744,1.2990000247955322,1.315999984741211,1.3329999446868896,1.3489999771118164,1.3659999370574951,1.3829998970031738,1.3989999294281006,1.4159998893737793,1.432999849319458,1.4499998092651367,1.4659998416900635,1.4830000400543213,1.498999834060669,1.5160000324249268,1.5319998264312744,1.5490000247955322,1.565999984741211,1.5820000171661377,1.5989999771118164,1.6159999370574951,1.6329998970031738,1.6489999294281006,1.6649999618530273,1.681999921798706,1.6989998817443848,1.7149999141693115]",,[],[],NaN,-171.5,5.5,1,space,0.633999825,40,0,40,0,1,39,,,,,,,,,,,,,,,,,,
,,,,,,,,,,,,,,,,,,,,,,,,,,,,,,,,,,,1,0,1,0,1,0,,,,,,,Pilot1,,,2020-06-25_10h49.51.459,AvatarExp_SD,3.1.2,60,,,,,300,200,0,const,3.5,110,right,-13,-46,"[-364,-364,-363,-360,-352,-342,-331,-316,-291,-263,-229,-190,-147,-105,-64,-35,-12,5,16,21,23,24,24,22,19,15,12,8,4,0,-4,-8,-11,-12,-12,-13,-13,-14,-15,-15,-15,-15,-15,-15,-15,-14,-14,-14,-13,-13,-13,-13,-13,-13,-13,-13,-13,-13,-13,-13,-13,-13,-13,-13,-13,-14,-19,-25,-27,-29,-29,-30,-30,-30,-30,-30,-29,-28,-27,-25,-23,-22,-21,-21,-20,-20,-20,-20,-20,-19,-19]","[-201.5,-201.5,-201.5,-199.5,-196.5,-190.5,-184.5,-176.5,-162.5,-147.5,-128.5,-105.5,-78.5,-53.5,-27.5,-7.5,8.5,23.5,33.5,37.5,39.5,40.5,42.5,45.5,49.5,53.5,57.5,61.5,66.5,71.5,76.5,79.5,82.5,83.5,85.5,87.5,88.5,90.5,92.5,93.5,95.5,97.5,98.5,99.5,100.5,101.5,101.5,101.5,102.5,102.5,102.5,102.5,102.5,102.5,102.5,102.5,102.5,102.5,102.5,101.5,96.5,89.5,76.5,58.5,32.5,-5.5,-42.5,-76.5,-101.5,-118.5,-131.5,-143.5,-153.5,-160.5,-165.5,-168.5,-170.5,-172.5,-175.5,-177.5,-181.5,-184.5,-187.5,-189.5,-189.5,-189.5,-190.5,-190.5,-190.5,-190.5,-190.5]","[0,0,0,0,0,0,0,0,0,0,0,0,0,0,0,0,0,0,0,0,0,0,0,0,0,0,0,0,0,0,0,0,0,0,0,0,0,0,0,0,0,0,0,0,0,0,0,0,0,0,1,1,1,1,1,1,0,0,0,0,0,0,0,0,0,0,0,0,0,0,0,0,0,0,0,0,0,0,0,0,0,0,0,0,0,0,0,0,0,0,1]","[0,0,0,0,0,0,0,0,0,0,0,0,0,0,0,0,0,0,0,0,0,0,0,0,0,0,0,0,0,0,0,0,0,0,0,0,0,0,0,0,0,0,0,0,0,0,0,0,0,0,0,0,0,0,0,0,0,0,0,0,0,0,0,0,0,0,0,0,0,0,0,0,0,0,0,0,0,0,0,0,0,0,0,0,0,0,0,0,0,0,0]","[0,0,0,0,0,0,0,0,0,0,0,0,0,0,0,0,0,0,0,0,0,0,0,0,0,0,0,0,0,0,0,0,0,0,0,0,0,0,0,0,0,0,0,0,0,0,0,0,0,0,0,0,0,0,0,0,0,0,0,0,0,0,0,0,0,0,0,0,0,0,0,0,0,0,0,0,0,0,0,0,0,0,0,0,0,0,0,0,0,0,0]","[0,0.014999866485595703,0.03099989891052246,0.04799985885620117,0.06500005722045898,0.08099985122680664,0.0989999771118164,0.11500000953674316,0.13199996948242188,0.14800000190734863,0.16499996185302734,0.1809999942779541,0.1979999542236328,0.21499991416931152,0.23099994659423828,0.24900007247924805,0.2649998664855957,0.28099989891052246,0.29799985885620117,0.315000057220459,0.33099985122680664,0.34800004959106445,0.36500000953674316,0.3810000419616699,0.39800000190734863,0.41499996185302734,0.43199992179870605,0.4479999542236328,0.4649999141693115,0.4809999465942383,0.497999906539917,0.5149998664855957,0.5309998989105225,0.5479998588562012,0.565000057220459,0.5809998512268066,0.5980000495910645,0.6150000095367432,0.6310000419616699,0.6480000019073486,0.6649999618530273,0.6809999942779541,0.6979999542236328,0.7149999141693115,0.7309999465942383,0.747999906539917,0.7649998664855957,0.7809998989105225,0.7979998588562012,0.8139998912811279,0.8320000171661377,0.8480000495910645,0.8650000095367432,0.8819999694824219,0.8980000019073486,0.9149999618530273,0.931999921798706,0.9479999542236328,0.9649999141693115,0.9819998741149902,0.999000072479248,1.0160000324249268,1.0329999923706055,1.0490000247955322,1.065999984741211,1.0820000171661377,1.0989999771118164,1.1159999370574951,1.1319999694824219,1.1489999294281006,1.1649999618530273,1.181999921798706,1.1989998817443848,1.2149999141693115,1.2319998741149902,1.249000072479248,1.2660000324249268,1.2820000648498535,1.2990000247955322,1.315000057220459,1.3320000171661377,1.3480000495910645,1.3650000095367432,1.3819999694824219,1.3980000019073486,1.4149999618530273,1.431999921798706,1.4489998817443848,1.4649999141693115,1.4839999675750732,1.497999906539917]",,[],[],NaN,176,12.5,1,space,0.766000032,40,0,40,0,1,39,,,,,,,,,,,,,,,,,,
,,,,,,,,,,,,,,,,,,,,,,,,,,,,,,,,,,,1,0,1,0,1,0,,,,,,,Pilot1,,,2020-06-25_10h49.51.459,AvatarExp_SD,3.1.2,60,,,,,200,100,0,const,3.5,88,right,-6,35,"[-21,-21,-21,-21,-21,-21,-21,-21,-21,-21,-21,-21,-21,-21,-20,-20,-19,-15,-12,-9,-7,-4,0,2,3,3,4,5,6,7,7,7,7,7,6,4,2,-1,-3,-4,-5,-6,-6,-6,-6,-6,-6,-6,-6,-6,-6,-6,-6,-6,-6,-6,-7,-8,-8,-8,-8,-8,-8,-8,-8,-8,-8,-8,-8,-8,-7,-6,-5,-4,-4,-4,-4,-3,-3,-2,-2,-1,-1,-1,-1]","[-173.5,-173.5,-173.5,-173.5,-173.5,-172.5,-172.5,-171.5,-170.5,-168.5,-166.5,-163.5,-159.5,-153.5,-144.5,-128.5,-103.5,-77.5,-56.5,-33.5,-14.5,4.5,27.5,43.5,53.5,59.5,64.5,69.5,74.5,78.5,81.5,85.5,89.5,93.5,97.5,100.5,103.5,107.5,109.5,111.5,112.5,113.5,113.5,113.5,113.5,113.5,113.5,113.5,113.5,113.5,113.5,113.5,113.5,113.5,110.5,105.5,98.5,88.5,74.5,61.5,42.5,21.5,-4.5,-29.5,-59.5,-85.5,-107.5,-126.5,-139.5,-146.5,-150.5,-154.5,-157.5,-162.5,-166.5,-169.5,-172.5,-175.5,-177.5,-179.5,-181.5,-182.5,-182.5,-182.5,-182.5]","[0,0,0,0,0,0,0,0,0,0,0,0,0,0,0,0,0,0,0,0,0,0,0,0,0,0,0,0,0,0,0,0,0,0,0,0,0,0,0,0,0,0,0,0,0,1,1,1,1,1,1,1,1,0,0,0,0,0,0,0,0,0,0,0,0,0,0,0,0,0,0,0,0,0,0,0,0,0,0,0,0,0,0,0,1]","[0,0,0,0,0,0,0,0,0,0,0,0,0,0,0,0,0,0,0,0,0,0,0,0,0,0,0,0,0,0,0,0,0,0,0,0,0,0,0,0,0,0,0,0,0,0,0,0,0,0,0,0,0,0,0,0,0,0,0,0,0,0,0,0,0,0,0,0,0,0,0,0,0,0,0,0,0,0,0,0,0,0,0,0,0]","[0,0,0,0,0,0,0,0,0,0,0,0,0,0,0,0,0,0,0,0,0,0,0,0,0,0,0,0,0,0,0,0,0,0,0,0,0,0,0,0,0,0,0,0,0,0,0,0,0,0,0,0,0,0,0,0,0,0,0,0,0,0,0,0,0,0,0,0,0,0,0,0,0,0,0,0,0,0,0,0,0,0,0,0,0]","[0.0009999275207519531,0.015999794006347656,0.03299999237060547,0.04900002479553223,0.06599998474121094,0.08299994468688965,0.0989999771118164,0.11599993705749512,0.13299989700317383,0.14999985694885254,0.1659998893737793,0.182999849319458,0.19999980926513672,0.21599984169006348,0.2329998016357422,0.25,0.26599979400634766,0.28299999237060547,0.2999999523162842,0.31599998474121094,0.33299994468688965,0.34999990463256836,0.3659999370574951,0.38299989700317383,0.39999985694885254,0.4159998893737793,0.432999849319458,0.4499998092651367,0.46700000762939453,0.4829998016357422,0.5,0.5159997940063477,0.5329999923706055,0.5499999523162842,0.5659999847412109,0.5829999446868896,0.5999999046325684,0.6159999370574951,0.6329998970031738,0.6499998569488525,0.6659998893737793,0.682999849319458,0.6989998817443848,0.7159998416900635,0.7329998016357422,0.75,0.7669999599456787,0.7829999923706055,0.7999999523162842,0.8159999847412109,0.8329999446868896,0.8499999046325684,0.8669998645782471,0.8829998970031738,0.8999998569488525,0.9169998168945312,0.9340000152587891,0.9499998092651367,0.9670000076293945,0.9839999675750732,1.000999927520752,1.0179998874664307,1.0339999198913574,1.0509998798370361,1.0679998397827148,1.0839998722076416,1.0999999046325684,1.116999864578247,1.1329998970031738,1.1499998569488525,1.1669998168945312,1.184000015258789,1.1999998092651367,1.2170000076293945,1.2339999675750732,1.25,1.2669999599456787,1.2829999923706055,1.2999999523162842,1.316999912261963,1.3329999446868896,1.3499999046325684,1.3659999370574951,1.3829998970031738,1.3999998569488525]",,[],[],NaN,71,-1.5,1,space,0.614000082,40,0,40,0,1,39,,,,,,,,,,,,,,,,,,
,,,,,,,,,,,,,,,,,,,,,,,,,,,,,,,,,,,1,0,1,0,1,0,,,,,,,Pilot1,,,2020-06-25_10h49.51.459,AvatarExp_SD,3.1.2,60,,,,,300,200,0,const,3.5,144,left,-17,-12,"[-1,-1,-1,-1,-1,-1,-1,-1,-1,-1,-1,-1,0,1,3,3,3,1,0,0,0,2,4,5,6,7,7,7,7,7,7,5,3,3,2,1,-1,-4,-8,-8,-9,-9,-11,-14,-16,-17,-17,-17,-17,-17,-17,-17,-17,-17,-17,-18,-18,-18,-17,-17,-18,-20,-20,-21,-21,-21,-21,-20,-19,-17,-13,-11,-9,-8,-7,-6,-3,-3,-2,-2,-2,-2,-2]","[-181.5,-181.5,-181.5,-181.5,-181.5,-181.5,-181.5,-181.5,-181.5,-181.5,-179.5,-176.5,-173.5,-170.5,-163.5,-152.5,-134.5,-110.5,-81.5,-44.5,-13.5,14.5,38.5,52.5,64.5,72.5,76.5,79.5,82.5,84.5,87.5,91.5,93.5,96.5,97.5,98.5,99.5,99.5,101.5,101.5,101.5,102.5,102.5,103.5,103.5,103.5,103.5,103.5,103.5,103.5,103.5,103.5,103.5,103.5,103.5,103.5,98.5,90.5,78.5,64.5,44.5,15.5,-21.5,-54.5,-83.5,-109.5,-125.5,-137.5,-144.5,-152.5,-161.5,-166.5,-171.5,-176.5,-180.5,-182.5,-189.5,-191.5,-192.5,-192.5,-193.5,-193.5,-193.5]","[0,0,0,0,0,0,0,0,0,0,0,0,0,0,0,0,0,0,0,0,0,0,0,0,0,0,0,0,0,0,0,0,0,0,0,0,0,0,0,0,0,0,0,0,0,0,0,0,0,1,1,1,1,0,0,0,0,0,0,0,0,0,0,0,0,0,0,0,0,0,0,0,0,0,0,0,0,0,0,0,0,0,1]","[0,0,0,0,0,0,0,0,0,0,0,0,0,0,0,0,0,0,0,0,0,0,0,0,0,0,0,0,0,0,0,0,0,0,0,0,0,0,0,0,0,0,0,0,0,0,0,0,0,0,0,0,0,0,0,0,0,0,0,0,0,0,0,0,0,0,0,0,0,0,0,0,0,0,0,0,0,0,0,0,0,0,0]","[0,0,0,0,0,0,0,0,0,0,0,0,0,0,0,0,0,0,0,0,0,0,0,0,0,0,0,0,0,0,0,0,0,0,0,0,0,0,0,0,0,0,0,0,0,0,0,0,0,0,0,0,0,0,0,0,0,0,0,0,0,0,0,0,0,0,0,0,0,0,0,0,0,0,0,0,0,0,0,0,0,0,0]","[0,0.029000043869018555,0.046000003814697266,0.06200003623962402,0.07899999618530273,0.09599995613098145,0.12899994850158691,0.14499998092651367,0.16199994087219238,0.1789999008178711,0.19700002670288086,0.21300005912780762,0.22900009155273438,0.24699997901916504,0.2630000114440918,0.2799999713897705,0.2969999313354492,0.312999963760376,0.3299999237060547,0.34599995613098145,0.36299991607666016,0.38000011444091797,0.3970000743865967,0.41300010681152344,0.4289999008178711,0.4460000991821289,0.4630000591278076,0.48000001907348633,0.4960000514984131,0.5130000114440918,0.5299999713897705,0.5460000038146973,0.562999963760376,0.5789999961853027,0.5959999561309814,0.6129999160766602,0.630000114440918,0.6459999084472656,0.6619999408721924,0.6789999008178711,0.6960000991821289,0.7120001316070557,0.7290000915527344,0.7460000514984131,0.7620000839233398,0.7790000438690186,0.7950000762939453,0.812000036239624,0.8289999961853027,0.8459999561309814,0.8629999160766602,0.880000114440918,0.8959999084472656,0.9130001068115234,0.9289999008178711,0.9460000991821289,0.9630000591278076,0.9800000190734863,0.9960000514984131,1.0130000114440918,1.0299999713897705,1.0469999313354492,1.062999963760376,1.0799999237060547,1.0959999561309814,1.1140000820159912,1.130000114440918,1.1459999084472656,1.1630001068115234,1.1800000667572021,1.196000099182129,1.2130000591278076,1.2300000190734863,1.246999979019165,1.2630000114440918,1.2799999713897705,1.3299999237060547,1.3459999561309814,1.3629999160766602,1.378999948501587,1.3959999084472656,1.4119999408721924,1.428999900817871]",,[],[],NaN,-174.5,12.5,1,space,0.662000179,40,0,40,0,1,39,,,,,,,,,,,,,,,,,,
,,,,,,,,,,,,,,,,,,,,,,,,,,,,,,,,,,,1,0,1,0,1,0,,,,,,,Pilot1,,,2020-06-25_10h49.51.459,AvatarExp_SD,3.1.2,60,,,,,300,200,0,const,3.5,116,right,-5,-4,"[-4,-4,-4,-4,-4,-4,-4,-4,-4,-4,-4,-4,-3,-2,1,4,8,12,19,20,16,10,2,-1,-3,-6,-10,-14,-16,-17,-18,-19,-20,-20,-20,-20,-20,-20,-20,-18,-15,-14,-13,-11,-9,-8,-6,-6,-6,-5,-5,-5,-5,-5,-5,-5,-5,-5,-5,-6,-6,-6,-5,-4,-3,-3,-2,-1,1,3,5,7,7,8,8,8,8,8,8,7,7,6,5,5,5,5,5,5,5,5,5,5,5]","[-168.5,-168.5,-168.5,-168.5,-168.5,-168.5,-168.5,-168.5,-168.5,-168.5,-168.5,-168.5,-167.5,-167.5,-165.5,-163.5,-157.5,-150.5,-115.5,-79.5,-45.5,-13.5,13.5,28.5,39.5,49.5,59.5,69.5,80.5,84.5,90.5,94.5,97.5,100.5,101.5,102.5,102.5,102.5,102.5,103.5,103.5,104.5,104.5,104.5,104.5,103.5,102.5,102.5,102.5,101.5,101.5,101.5,101.5,101.5,101.5,101.5,101.5,101.5,98.5,92.5,80.5,62.5,44.5,25.5,0.5,-20.5,-44.5,-67.5,-85.5,-100.5,-111.5,-119.5,-125.5,-132.5,-136.5,-139.5,-142.5,-146.5,-151.5,-158.5,-164.5,-168.5,-173.5,-175.5,-177.5,-180.5,-182.5,-184.5,-186.5,-186.5,-186.5,-186.5,-186.5]","[0,0,0,0,0,0,0,0,0,0,0,0,0,0,0,0,0,0,0,0,0,0,0,0,0,0,0,0,0,0,0,0,0,0,0,0,0,0,0,0,0,0,0,0,0,0,0,0,0,0,0,0,1,1,1,1,0,0,0,0,0,0,0,0,0,0,0,0,0,0,0,0,0,0,0,0,0,0,0,0,0,0,0,0,0,0,0,0,0,0,0,0,1]","[0,0,0,0,0,0,0,0,0,0,0,0,0,0,0,0,0,0,0,0,0,0,0,0,0,0,0,0,0,0,0,0,0,0,0,0,0,0,0,0,0,0,0,0,0,0,0,0,0,0,0,0,0,0,0,0,0,0,0,0,0,0,0,0,0,0,0,0,0,0,0,0,0,0,0,0,0,0,0,0,0,0,0,0,0,0,0,0,0,0,0,0,0]","[0,0,0,0,0,0,0,0,0,0,0,0,0,0,0,0,0,0,0,0,0,0,0,0,0,0,0,0,0,0,0,0,0,0,0,0,0,0,0,0,0,0,0,0,0,0,0,0,0,0,0,0,0,0,0,0,0,0,0,0,0,0,0,0,0,0,0,0,0,0,0,0,0,0,0,0,0,0,0,0,0,0,0,0,0,0,0,0,0,0,0,0,0]","[0,0.015000104904174805,0.032000064849853516,0.04900002479553223,0.06500005722045898,0.08299994468688965,0.0989999771118164,0.11599993705749512,0.13199996948242188,0.1529998779296875,0.16700005531311035,0.18400001525878906,0.20199990272521973,0.2200000286102295,0.2349998950958252,0.25099992752075195,0.26799988746643066,0.2850000858306885,0.3269999027252197,0.3489999771118164,0.36500000953674316,0.3819999694824219,0.3989999294281006,0.41499996185302734,0.43199992179870605,0.44899988174438477,0.4649999141693115,0.48199987411499023,0.49900007247924805,0.5160000324249268,0.5320000648498535,0.5490000247955322,0.565000057220459,0.5820000171661377,0.5989999771118164,0.6150000095367432,0.6319999694824219,0.6480000019073486,0.6649999618530273,0.681999921798706,0.6989998817443848,0.7160000801086426,0.7319998741149902,0.749000072479248,0.7650001049041748,0.7820000648498535,0.7990000247955322,0.815000057220459,0.8320000171661377,0.8489999771118164,0.8650000095367432,0.8819999694824219,0.8989999294281006,0.9149999618530273,0.931999921798706,0.9489998817443848,0.9649999141693115,0.9830000400543213,0.999000072479248,1.0160000324249268,1.0329999923706055,1.0490000247955322,1.065999984741211,1.0829999446868896,1.0999999046325684,1.1159999370574951,1.1329998970031738,1.1489999294281006,1.1659998893737793,1.183000087738037,1.1989998817443848,1.2160000801086426,1.2330000400543213,1.249000072479248,1.2660000324249268,1.2829999923706055,1.2990000247955322,1.315999984741211,1.3329999446868896,1.3499999046325684,1.3659999370574951,1.3819999694824219,1.3989999294281006,1.4159998893737793,1.433000087738037,1.4489998817443848,1.4660000801086426,1.4830000400543213,1.499000072479248,1.5160000324249268,1.5320000648498535,1.5490000247955322,1.565999984741211]",,[],[],NaN,173.5,-5,1,space,0.599999905,40,0,40,0,1,39,,,,,,,,,,,,,,,,,,
,,,,,,,,,,,,,,,,,,,,,,,,,,,,,,,,,,,1,0,1,0,1,0,,,,,,,Pilot1,,,2020-06-25_10h49.51.459,AvatarExp_SD,3.1.2,60,,,,,500,400,0,const,3.5,75,left,-341,99,"[-7,-7,-7,-7,-7,-7,-7,-7,-7,-7,-7,-7,-7,-7,-6,-3,0,5,9,11,13,13,10,6,1,-3,-6,-8,-9,-10,-12,-13,-14,-17,-22,-34,-51,-53,-110,-370,-382,-387,-388,-388,-388,-388,-385,-381,-377,-370,-361,-350,-342,-341,-341,-341,-341,-341,-341,-341,-341,-341,-341,-341,-339,-334,-322,-309,-286,-247,-204,-162,-125,-94,-72,-49,-29,-9,5,12,16,19,20,23,24,25,25,25,25,25,25,25,25,25,25]","[-158.5,-158.5,-158.5,-158.5,-158.5,-158.5,-158.5,-158.5,-158.5,-158.5,-158.5,-158.5,-158.5,-158.5,-155.5,-151.5,-142.5,-127.5,-107.5,-88.5,-67.5,-38.5,-12.5,9.5,29.5,43.5,53.5,61.5,69.5,80.5,91.5,97.5,101.5,105.5,107.5,109.5,111.5,111.5,114.5,109.5,108.5,107.5,107.5,107.5,107.5,107.5,107.5,107.5,107.5,107.5,107.5,107.5,107.5,107.5,107.5,107.5,107.5,107.5,107.5,107.5,107.5,107.5,107.5,107.5,102.5,92.5,77.5,56.5,29.5,-6.5,-42.5,-72.5,-93.5,-109.5,-121.5,-136.5,-149.5,-158.5,-164.5,-166.5,-168.5,-170.5,-171.5,-179.5,-185.5,-189.5,-191.5,-191.5,-191.5,-191.5,-191.5,-192.5,-192.5,-192.5,-192.5]","[0,0,0,0,0,0,0,0,0,0,0,0,0,0,0,0,0,0,0,0,0,0,0,0,0,0,0,0,0,0,0,0,0,0,0,0,0,0,0,0,0,0,0,0,0,0,0,0,0,0,0,0,0,0,0,0,0,1,1,1,1,0,0,0,0,0,0,0,0,0,0,0,0,0,0,0,0,0,0,0,0,0,0,0,0,0,0,0,0,0,0,0,0,0,1]","[0,0,0,0,0,0,0,0,0,0,0,0,0,0,0,0,0,0,0,0,0,0,0,0,0,0,0,0,0,0,0,0,0,0,0,0,0,0,0,0,0,0,0,0,0,0,0,0,0,0,0,0,0,0,0,0,0,0,0,0,0,0,0,0,0,0,0,0,0,0,0,0,0,0,0,0,0,0,0,0,0,0,0,0,0,0,0,0,0,0,0,0,0,0,0]","[0,0,0,0,0,0,0,0,0,0,0,0,0,0,0,0,0,0,0,0,0,0,0,0,0,0,0,0,0,0,0,0,0,0,0,0,0,0,0,0,0,0,0,0,0,0,0,0,0,0,0,0,0,0,0,0,0,0,0,0,0,0,0,0,0,0,0,0,0,0,0,0,0,0,0,0,0,0,0,0,0,0,0,0,0,0,0,0,0,0,0,0,0,0,0]","[0,0.015000104904174805,0.032000064849853516,0.04800009727478027,0.06500005722045898,0.0820000171661377,0.09800004959106445,0.11500000953674316,0.13199996948242188,0.14800000190734863,0.16499996185302734,0.18199992179870605,0.1979999542236328,0.21600008010864258,0.2330000400543213,0.24900007247924805,0.26600003242492676,0.2820000648498535,0.2990000247955322,0.315000057220459,0.3320000171661377,0.34800004959106445,0.36500000953674316,0.3819999694824219,0.3989999294281006,0.41499996185302734,0.43199992179870605,0.44899988174438477,0.46700000762939453,0.4830000400543213,0.5,0.5160000324249268,0.5329999923706055,0.5490000247955322,0.5659999847412109,0.5829999446868896,0.5999999046325684,0.6159999370574951,0.6349999904632568,0.7660000324249268,0.7820000648498535,0.7990000247955322,0.815000057220459,0.8320000171661377,0.8480000495910645,0.8650000095367432,0.8819999694824219,0.8989999294281006,0.9149999618530273,0.931999921798706,0.9489998817443848,0.9649999141693115,0.9819998741149902,0.999000072479248,1.0150001049041748,1.0320000648498535,1.0480000972747803,1.065000057220459,1.0820000171661377,1.0989999771118164,1.1150000095367432,1.1319999694824219,1.1489999294281006,1.1649999618530273,1.181999921798706,1.1989998817443848,1.2160000801086426,1.2319998741149902,1.249000072479248,1.2660000324249268,1.2829999923706055,1.2999999523162842,1.315999984741211,1.3329999446868896,1.3499999046325684,1.3659999370574951,1.3819999694824219,1.3989999294281006,1.4159998893737793,1.433000087738037,1.4509999752044678,1.4660000801086426,1.4830000400543213,1.5329999923706055,1.5490000247955322,1.565999984741211,1.5829999446868896,1.5989999771118164,1.6150000095367432,1.6319999694824219,1.6489999294281006,1.6659998893737793,1.681999921798706,1.6989998817443848,1.7149999141693115]",,[],[],NaN,-372.5,2,1,space,0.918000221,40,0,40,0,1,39,,,,,,,,,,,,,,,,,,
,,,,,,,,,,,,,,,,,,,,,,,,,,,,,,,,,,,1,0,1,0,1,0,,,,,,,Pilot1,,,2020-06-25_10h49.51.459,AvatarExp_SD,3.1.2,60,,,,,500,400,0,const,3.5,113,right,-336,-109,"[-61,-61,-61,-61,-61,-61,-61,-61,-61,-61,-61,-61,-61,-61,-61,-61,-61,-61,-62,-65,-71,-73,-73,-73,-73,-72,-69,-64,-58,-54,-54,-54,-58,-63,-76,-94,-124,-165,-226,-274,-306,-321,-329,-333,-333,-334,-336,-340,-341,-341,-341,-341,-341,-341,-340,-338,-337,-337,-336,-336,-336,-336,-336,-336,-335,-335,-335,-334,-329,-315,-288,-244,-193,-126,-69,-25,5,21,28,32,34,35,35,35,35,34,32,28,21,17,13,9,6,4,2,0,0,-1,-1,-1,-1]","[-69.5,-69.5,-69.5,-69.5,-69.5,-69.5,-69.5,-69.5,-69.5,-69.5,-69.5,-69.5,-69.5,-69.5,-69.5,-69.5,-69.5,-69.5,-69.5,-68.5,-66.5,-64.5,-64.5,-64.5,-61.5,-55.5,-48.5,-36.5,-23.5,-8.5,0.5,8.5,16.5,24.5,34.5,44.5,56.5,65.5,75.5,81.5,84.5,85.5,86.5,87.5,88.5,88.5,88.5,88.5,88.5,88.5,88.5,88.5,89.5,91.5,94.5,97.5,101.5,103.5,106.5,108.5,108.5,108.5,109.5,109.5,109.5,109.5,109.5,107.5,100.5,86.5,63.5,31.5,-1.5,-42.5,-75.5,-97.5,-112.5,-120.5,-125.5,-130.5,-134.5,-138.5,-142.5,-146.5,-150.5,-152.5,-155.5,-157.5,-162.5,-165.5,-169.5,-172.5,-175.5,-177.5,-178.5,-181.5,-182.5,-182.5,-182.5,-182.5,-182.5]","[0,0,0,0,0,0,0,0,0,0,0,0,0,0,0,0,0,0,0,0,0,0,0,0,0,0,0,0,0,0,0,0,0,0,0,0,0,0,0,0,0,0,0,0,0,0,0,0,0,0,0,0,0,0,0,0,0,0,0,0,0,1,1,1,0,0,0,0,0,0,0,0,0,0,0,0,0,0,0,0,0,0,0,0,0,0,0,0,0,0,0,0,0,0,0,0,0,0,0,0,1]","[0,0,0,0,0,0,0,0,0,0,0,0,0,0,0,0,0,0,0,0,0,0,0,0,0,0,0,0,0,0,0,0,0,0,0,0,0,0,0,0,0,0,0,0,0,0,0,0,0,0,0,0,0,0,0,0,0,0,0,0,0,0,0,0,0,0,0,0,0,0,0,0,0,0,0,0,0,0,0,0,0,0,0,0,0,0,0,0,0,0,0,0,0,0,0,0,0,0,0,0,0]","[0,0,0,0,0,0,0,0,0,0,0,0,0,0,0,0,0,0,0,0,0,0,0,0,0,0,0,0,0,0,0,0,0,0,0,0,0,0,0,0,0,0,0,0,0,0,0,0,0,0,0,0,0,0,0,0,0,0,0,0,0,0,0,0,0,0,0,0,0,0,0,0,0,0,0,0,0,0,0,0,0,0,0,0,0,0,0,0,0,0,0,0,0,0,0,0,0,0,0,0,0]","[0.0009999275207519531,0.016000032424926758,0.032000064849853516,0.04900002479553223,0.06599998474121094,0.0820000171661377,0.0989999771118164,0.11599993705749512,0.13299989700317383,0.14899992942810059,0.1659998893737793,0.182999849319458,0.19899988174438477,0.21600008010864258,0.2330000400543213,0.24900007247924805,0.26600003242492676,0.28299999237060547,0.2990000247955322,0.31599998474121094,0.33299994468688965,0.34999990463256836,0.3659999370574951,0.3819999694824219,0.39999985694885254,0.41700005531311035,0.432999849319458,0.4500000476837158,0.4660000801086426,0.4830000400543213,0.5,0.5160000324249268,0.5329999923706055,0.5499999523162842,0.5659999847412109,0.5829999446868896,0.5999999046325684,0.6159999370574951,0.6329998970031738,0.6499998569488525,0.6659998893737793,0.682999849319458,0.7000000476837158,0.7160000801086426,0.7330000400543213,0.749000072479248,0.7660000324249268,0.7829999923706055,0.7999999523162842,0.8159999847412109,0.8320000171661377,0.8489999771118164,0.8659999370574951,0.8829998970031738,0.8989999294281006,0.9159998893737793,0.932999849319458,0.9500000476837158,0.9660000801086426,0.9830000400543213,0.999000072479248,1.0160000324249268,1.0329999923706055,1.0499999523162842,1.066999912261963,1.0829999446868896,1.0999999046325684,1.1159999370574951,1.1329998970031738,1.1499998569488525,1.1670000553131104,1.182999849319458,1.2000000476837158,1.2170000076293945,1.2339999675750732,1.250999927520752,1.2669999599456787,1.2829999923706055,1.2999999523162842,1.316999912261963,1.3339998722076416,1.3499999046325684,1.3659999370574951,1.3829998970031738,1.3999998569488525,1.4159998893737793,1.434000015258789,1.4500000476837158,1.4670000076293945,1.4839999675750732,1.5,1.5160000324249268,1.5329999923706055,1.5499999523162842,1.566999912261963,1.5829999446868896,1.5999999046325684,1.6159999370574951,1.6329998970031738,1.6499998569488525,1.6670000553131104]",,[],[],NaN,-91,-5,0,space,0.619999886,40,0,40,0,1,39,,,,,,,,,,,,,,,,,,
,,,,,,,,,,,,,,,,,,,,,,,,,,,,,,,,,,,1,0,1,0,1,0,,,,,,,Pilot1,,,2020-06-25_10h49.51.459,AvatarExp_SD,3.1.2,60,,,,,400,300,0,const,3.5,138,right,-230,-11,"[-1,-1,-1,-1,-1,-1,-1,-1,-1,-1,-1,-1,-1,-1,-1,-1,-1,-1,-1,-1,-1,-1,0,0,0,0,0,0,0,0,0,2,3,4,5,5,5,5,5,5,5,5,4,2,0,0,0,-1,-2,-3,-4,-4,-4,-4,-4,-4,-4,-4,-4,-4,-4,-4,-4,-4,-4,-4,-4,-4,-5,-5,-5,-5,-5,-5,-5,-5,-5,-5,-5,-5,-5,-4,-4,-3,-1,0,1,1,-1,-4,-8,-21,-41,-63,-90,-110,-126,-138,-146,-151,-154,-157,-160,-165,-171,-178,-187,-194,-201,-211,-218,-226,-229,-229,-230,-230,-230,-230,-230,-230,-230,-230,-226,-221,-214,-202,-180,-142,-106,-72,-38,-15,3,21,32,38,41,41,41,41,41,41,41,41,39,34,24,10,1,-1,-2,-2,-2,-2]","[-176.5,-176.5,-176.5,-176.5,-176.5,-176.5,-176.5,-176.5,-176.5,-176.5,-176.5,-176.5,-176.5,-176.5,-176.5,-176.5,-176.5,-176.5,-176.5,-176.5,-176.5,-176.5,-174.5,-173.5,-173.5,-172.5,-164.5,-140.5,-111.5,-94.5,-75.5,-56.5,-35.5,-19.5,-2.5,17.5,19.5,27.5,36.5,46.5,59.5,68.5,76.5,84.5,90.5,94.5,96.5,98.5,99.5,100.5,100.5,101.5,101.5,101.5,101.5,101.5,101.5,101.5,101.5,101.5,101.5,101.5,101.5,101.5,101.5,101.5,100.5,98.5,96.5,94.5,94.5,93.5,93.5,92.5,92.5,92.5,92.5,92.5,92.5,89.5,82.5,69.5,47.5,26.5,7.5,-7.5,-18.5,-26.5,-28.5,-29.5,-29.5,-22.5,-11.5,2.5,22.5,41.5,58.5,73.5,84.5,93.5,97.5,101.5,103.5,105.5,107.5,108.5,109.5,110.5,112.5,113.5,115.5,115.5,115.5,115.5,115.5,115.5,115.5,115.5,115.5,115.5,115.5,114.5,112.5,109.5,100.5,85.5,63.5,29.5,-4.5,-38.5,-71.5,-94.5,-121.5,-147.5,-165.5,-177.5,-184.5,-185.5,-185.5,-185.5,-188.5,-191.5,-195.5,-198.5,-200.5,-200.5,-196.5,-192.5,-190.5,-189.5,-189.5,-189.5,-189.5,-189.5]","[0,0,0,0,0,0,0,0,0,0,0,0,0,0,0,0,0,0,0,0,0,0,0,0,0,0,0,0,0,0,0,0,0,0,0,0,0,0,0,0,0,0,0,0,0,0,0,0,0,0,0,0,0,0,0,0,0,1,1,1,1,0,0,0,0,0,0,0,0,0,0,0,0,0,0,0,0,0,0,0,0,0,0,0,0,0,0,0,0,0,0,0,0,0,0,0,0,0,0,0,0,0,0,0,0,0,0,0,0,0,0,0,0,0,1,1,1,1,1,0,0,0,0,0,0,0,0,0,0,0,0,0,0,0,0,0,0,0,0,0,0,0,0,0,0,0,0,0,0,0,0,0,0,1]","[0,0,0,0,0,0,0,0,0,0,0,0,0,0,0,0,0,0,0,0,0,0,0,0,0,0,0,0,0,0,0,0,0,0,0,0,0,0,0,0,0,0,0,0,0,0,0,0,0,0,0,0,0,0,0,0,0,0,0,0,0,0,0,0,0,0,0,0,0,0,0,0,0,0,0,0,0,0,0,0,0,0,0,0,0,0,0,0,0,0,0,0,0,0,0,0,0,0,0,0,0,0,0,0,0,0,0,0,0,0,0,0,0,0,0,0,0,0,0,0,0,0,0,0,0,0,0,0,0,0,0,0,0,0,0,0,0,0,0,0,0,0,0,0,0,0,0,0,0,0,0,0,0,0]","[0,0,0,0,0,0,0,0,0,0,0,0,0,0,0,0,0,0,0,0,0,0,0,0,0,0,0,0,0,0,0,0,0,0,0,0,0,0,0,0,0,0,0,0,0,0,0,0,0,0,0,0,0,0,0,0,0,0,0,0,0,0,0,0,0,0,0,0,0,0,0,0,0,0,0,0,0,0,0,0,0,0,0,0,0,0,0,0,0,0,0,0,0,0,0,0,0,0,0,0,0,0,0,0,0,0,0,0,0,0,0,0,0,0,0,0,0,0,0,0,0,0,0,0,0,0,0,0,0,0,0,0,0,0,0,0,0,0,0,0,0,0,0,0,0,0,0,0,0,0,0,0,0,0]","[0,0.015000104904174805,0.032000064849853516,0.04800009727478027,0.06500005722045898,0.08100008964538574,0.09800004959106445,0.11500000953674316,0.13100004196166992,0.14800000190734863,0.16499996185302734,0.18199992179870605,0.1979999542236328,0.21499991416931152,0.23099994659423828,0.2650001049041748,0.28099989891052246,0.2980000972747803,0.315000057220459,0.33100008964538574,0.34800004959106445,0.36500000953674316,0.3819999694824219,0.39800000190734863,0.41499996185302734,0.43199992179870605,0.44899988174438477,0.4739999771118164,0.5039999485015869,0.5169999599456787,0.5339999198913574,0.5520000457763672,0.5690000057220459,0.5839998722076416,0.6010000705718994,0.6380000114440918,0.6480000019073486,0.6649999618530273,0.681999921798706,0.6989998817443848,0.7149999141693115,0.7319998741149902,0.749000072479248,0.7650001049041748,0.7820000648498535,0.7990000247955322,0.815000057220459,0.8320000171661377,0.8480000495910645,0.8650000095367432,0.8819999694824219,0.8989999294281006,0.9149999618530273,0.9309999942779541,0.9479999542236328,0.9649999141693115,0.9819998741149902,0.999000072479248,1.0160000324249268,1.0320000648498535,1.0480000972747803,1.065000057220459,1.0820000171661377,1.0989999771118164,1.1150000095367432,1.1319999694824219,1.1489999294281006,1.1649999618530273,1.181999921798706,1.1989998817443848,1.2149999141693115,1.2319998741149902,1.249000072479248,1.2650001049041748,1.2820000648498535,1.2990000247955322,1.315000057220459,1.3320000171661377,1.3489999771118164,1.3650000095367432,1.3819999694824219,1.3989999294281006,1.4159998893737793,1.431999921798706,1.4489998817443848,1.4649999141693115,1.4830000400543213,1.500999927520752,1.5150001049041748,1.5320000648498535,1.5490000247955322,1.565999984741211,1.5820000171661377,1.5999999046325684,1.6150000095367432,1.6319999694824219,1.6489999294281006,1.6649999618530273,1.681999921798706,1.6989998817443848,1.7149999141693115,1.7319998741149902,1.749000072479248,1.7650001049041748,1.7820000648498535,1.7990000247955322,1.815000057220459,1.8320000171661377,1.8489999771118164,1.8650000095367432,1.8819999694824219,1.8989999294281006,1.9159998893737793,1.931999921798706,1.9489998817443848,1.9649999141693115,1.9819998741149902,1.999000072479248,2.015000104904175,2.0320000648498535,2.0490000247955322,2.065000057220459,2.0820000171661377,2.0989999771118164,2.115000009536743,2.131999969482422,2.1489999294281006,2.1649999618530273,2.181999921798706,2.1989998817443848,2.2149999141693115,2.2330000400543213,2.249000072479248,2.2660000324249268,2.2820000648498535,2.2990000247955322,2.315000057220459,2.3320000171661377,2.3489999771118164,2.365000009536743,2.381999969482422,2.3989999294281006,2.4149999618530273,2.431999921798706,2.4489998817443848,2.4649999141693115,2.4819998741149902,2.499000072479248,2.5160000324249268,2.5320000648498535,2.5490000247955322,2.565000057220459,2.5820000171661377,2.5980000495910645]",,[],[],NaN,-198.5,5.5,0,space,0.696000099,40,0,40,0,1,39,,,,,,,,,,,,,,,,,,
,,,,,,,,,,,,,,,,,,,,,,,,,,,,,,,,,,,1,0,1,0,1,0,,,,,,,Pilot1,,,2020-06-25_10h49.51.459,AvatarExp_SD,3.1.2,60,,,,,400,300,0,const,3.5,72,left,-234,-36,"[58,58,58,57,57,57,56,56,56,56,56,56,56,56,56,56,56,55,52,49,41,33,23,16,9,5,3,2,1,0,-1,-3,-6,-10,-13,-20,-29,-45,-63,-83,-102,-126,-149,-169,-191,-206,-217,-227,-233,-234,-234,-234,-234,-234,-234,-234,-234,-234,-234,-234,-234,-234,-234,-232,-222,-208,-187,-163,-131,-101,-75,-54,-41,-31,-21,-16,-12,-9,-7,-6,-5,-4,-4,-3,-3,-2,-2,-2,-2,-2,-2]","[-147.5,-146.5,-145.5,-144.5,-144.5,-144.5,-143.5,-142.5,-142.5,-142.5,-142.5,-142.5,-142.5,-142.5,-141.5,-138.5,-130.5,-117.5,-100.5,-80.5,-55.5,-31.5,-7.5,12.5,28.5,37.5,42.5,44.5,48.5,50.5,53.5,57.5,61.5,65.5,68.5,72.5,76.5,82.5,87.5,93.5,98.5,102.5,104.5,104.5,104.5,104.5,104.5,104.5,103.5,103.5,103.5,103.5,103.5,103.5,103.5,103.5,103.5,103.5,103.5,103.5,103.5,103.5,101.5,97.5,87.5,73.5,56.5,34.5,4.5,-28.5,-58.5,-84.5,-100.5,-113.5,-127.5,-137.5,-147.5,-154.5,-160.5,-168.5,-178.5,-186.5,-192.5,-195.5,-199.5,-202.5,-202.5,-202.5,-202.5,-202.5,-202.5]","[0,0,0,0,0,0,0,0,0,0,0,0,0,0,0,0,0,0,0,0,0,0,0,0,0,0,0,0,0,0,0,0,0,0,0,0,0,0,0,0,0,0,0,0,0,0,0,0,0,0,0,0,0,0,0,0,1,1,1,1,0,0,0,0,0,0,0,0,0,0,0,0,0,0,0,0,0,0,0,0,0,0,0,0,0,0,0,0,0,0,1]","[0,0,0,0,0,0,0,0,0,0,0,0,0,0,0,0,0,0,0,0,0,0,0,0,0,0,0,0,0,0,0,0,0,0,0,0,0,0,0,0,0,0,0,0,0,0,0,0,0,0,0,0,0,0,0,0,0,0,0,0,0,0,0,0,0,0,0,0,0,0,0,0,0,0,0,0,0,0,0,0,0,0,0,0,0,0,0,0,0,0,0]","[0,0,0,0,0,0,0,0,0,0,0,0,0,0,0,0,0,0,0,0,0,0,0,0,0,0,0,0,0,0,0,0,0,0,0,0,0,0,0,0,0,0,0,0,0,0,0,0,0,0,0,0,0,0,0,0,0,0,0,0,0,0,0,0,0,0,0,0,0,0,0,0,0,0,0,0,0,0,0,0,0,0,0,0,0,0,0,0,0,0,0]","[0,0.015000104904174805,0.032000064849853516,0.04900002479553223,0.06500005722045898,0.0820000171661377,0.0989999771118164,0.11500000953674316,0.13199996948242188,0.14800000190734863,0.16499996185302734,0.18200016021728516,0.1979999542236328,0.21500015258789062,0.23200011253356934,0.24900007247924805,0.26600003242492676,0.2820000648498535,0.2990000247955322,0.31599998474121094,0.33299994468688965,0.35000014305114746,0.3659999370574951,0.3819999694824219,0.40000009536743164,0.4160001277923584,0.43200016021728516,0.44900012016296387,0.4660000801086426,0.48200011253356934,0.49900007247924805,0.5150001049041748,0.5320000648498535,0.5490000247955322,0.5659999847412109,0.5820000171661377,0.5989999771118164,0.6150000095367432,0.6319999694824219,0.6490001678466797,0.6649999618530273,0.6820001602172852,0.6990001201629639,0.7150001525878906,0.7320001125335693,0.749000072479248,0.7660000324249268,0.7820000648498535,0.7990000247955322,0.8159999847412109,0.8320000171661377,0.8650000095367432,0.8819999694824219,0.9820001125335693,0.999000072479248,1.0150001049041748,1.0320000648498535,1.0490000247955322,1.067000150680542,1.0820000171661377,1.0989999771118164,1.1170001029968262,1.133000135421753,1.1500000953674316,1.1670000553131104,1.184000015258789,1.2000000476837158,1.2160000801086426,1.2330000400543213,1.25,1.2660000324249268,1.2829999923706055,1.2999999523162842,1.315999984741211,1.3329999446868896,1.3510000705718994,1.3659999370574951,1.383000135421753,1.4000000953674316,1.4160001277923584,1.433000087738037,1.4500000476837158,1.4660000801086426,1.4830000400543213,1.5,1.5160000324249268,1.5320000648498535,1.5490000247955322,1.565999984741211,1.5829999446868896,1.5989999771118164]",,[],[],NaN,-272.5,-8.5,1,space,0.885999918,40,0,40,0,1,39,,,,,,,,,,,,,,,,,,
,,,,,,,,,,,,,,,,,,,,,,,,,,,,,,,,,,,1,0,1,0,1,0,,,,,,,Pilot1,,,2020-06-25_10h49.51.459,AvatarExp_SD,3.1.2,60,,,,,400,300,0,const,3.5,82,right,-234,-94,"[118,118,118,118,118,118,118,118,118,118,118,118,118,118,118,118,118,118,116,112,108,101,89,74,56,36,11,-16,-37,-58,-78,-98,-110,-117,-123,-128,-134,-140,-143,-149,-156,-164,-173,-182,-189,-197,-205,-210,-213,-217,-221,-224,-229,-232,-234,-234,-234,-234,-234,-234,-234,-234,-234,-231,-216,-194,-164,-120,-78,-44,-23,-13,-2,7,15,19,19,19,19,19,19,20,20,20,20,20,20,20,20]","[-226.5,-226.5,-226.5,-226.5,-226.5,-226.5,-226.5,-226.5,-226.5,-226.5,-226.5,-226.5,-226.5,-226.5,-226.5,-226.5,-226.5,-225.5,-223.5,-218.5,-211.5,-200.5,-179.5,-150.5,-118.5,-77.5,-42.5,-9.5,10.5,28.5,45.5,61.5,72.5,79.5,83.5,87.5,91.5,94.5,96.5,98.5,99.5,101.5,101.5,102.5,102.5,102.5,102.5,102.5,102.5,103.5,104.5,105.5,106.5,107.5,107.5,107.5,107.5,107.5,107.5,107.5,107.5,107.5,101.5,89.5,64.5,36.5,2.5,-40.5,-85.5,-125.5,-154.5,-167.5,-174.5,-177.5,-180.5,-180.5,-180.5,-180.5,-180.5,-180.5,-180.5,-181.5,-181.5,-181.5,-181.5,-181.5,-181.5,-181.5,-181.5]","[0,0,0,0,0,0,0,0,0,0,0,0,0,0,0,0,0,0,0,0,0,0,0,0,0,0,0,0,0,0,0,0,0,0,0,0,0,0,0,0,0,0,0,0,0,0,0,0,0,0,0,0,0,0,0,0,1,1,1,1,0,0,0,0,0,0,0,0,0,0,0,0,0,0,0,0,0,0,0,0,0,0,0,0,0,0,0,0,1]","[0,0,0,0,0,0,0,0,0,0,0,0,0,0,0,0,0,0,0,0,0,0,0,0,0,0,0,0,0,0,0,0,0,0,0,0,0,0,0,0,0,0,0,0,0,0,0,0,0,0,0,0,0,0,0,0,0,0,0,0,0,0,0,0,0,0,0,0,0,0,0,0,0,0,0,0,0,0,0,0,0,0,0,0,0,0,0,0,0]","[0,0,0,0,0,0,0,0,0,0,0,0,0,0,0,0,0,0,0,0,0,0,0,0,0,0,0,0,0,0,0,0,0,0,0,0,0,0,0,0,0,0,0,0,0,0,0,0,0,0,0,0,0,0,0,0,0,0,0,0,0,0,0,0,0,0,0,0,0,0,0,0,0,0,0,0,0,0,0,0,0,0,0,0,0,0,0,0,0]","[0,0.015000104904174805,0.032000064849853516,0.04800009727478027,0.06500005722045898,0.0820000171661377,0.09800004959106445,0.11500000953674316,0.13199996948242188,0.14800000190734863,0.16499996185302734,0.18200016021728516,0.1979999542236328,0.21500015258789062,0.23099994659423828,0.2480001449584961,0.2650001049041748,0.2820000648498535,0.2980000972747803,0.315000057220459,0.3320000171661377,0.3489999771118164,0.3659999370574951,0.3819999694824219,0.3989999294281006,0.41499996185302734,0.43200016021728516,0.44900012016296387,0.4650001525878906,0.48200011253356934,0.4980001449584961,0.5150001049041748,0.5320000648498535,0.5480000972747803,0.565000057220459,0.5820000171661377,0.5989999771118164,0.6150000095367432,0.6319999694824219,0.6480000019073486,0.6649999618530273,0.6820001602172852,0.6979999542236328,0.7150001525878906,0.7320001125335693,0.7480001449584961,0.7660000324249268,0.7820000648498535,0.7990000247955322,0.815000057220459,0.8320000171661377,0.8480000495910645,0.8650000095367432,0.8819999694824219,0.8989999294281006,0.9149999618530273,0.9320001602172852,0.9490001201629639,0.9650001525878906,0.9830000400543213,0.999000072479248,1.0150001049041748,1.0329999923706055,1.0490000247955322,1.065999984741211,1.0829999446868896,1.0989999771118164,1.1180000305175781,1.133000135421753,1.1489999294281006,1.1660001277923584,1.1820001602172852,1.2000000476837158,1.2160000801086426,1.2320001125335693,1.249000072479248,1.2650001049041748,1.2820000648498535,1.2980000972747803,1.315000057220459,1.3320000171661377,1.3489999771118164,1.3650000095367432,1.3819999694824219,1.3989999294281006,1.4149999618530273,1.4320001602172852,1.4490001201629639,1.4650001525878906]",,[],[],NaN,-129,5.5,0,space,0.680999994,40,0,40,0,1,39,,,,,,,,,,,,,,,,,,
